"success","trial_type","trial_index","time_elapsed","internal_node_id","subject","workerId","qualtricsId","assignmentId","hitId","iso_identifier","list_id","rotation_start","view_history","rt","response","response_unadjusted","stimulus","trial_kind","cur_block","cur_trial","total_trial_num","phase","rotation_adjustment","correct_response","start_value","slider_start","target_stimulus","slider_stimulus","responses","difference_unadjusted","diff_response","required_movement_unadjusted","abs_diff_response","exclude","image","number_responses","avg_words_per_response","percent_unique_words","percent_unique_lemmas","simpson_diversity","modal_agreement","modal_names","modal_response_agreement","modal_response","slider_stim_image","slider_stim_number_responses","slider_stim_avg_words_per_response","slider_stim_percent_unique_words","slider_stim_percent_unique_lemmas","slider_stim_simpson_diversity","slider_stim_modal_agreement","slider_stim_modal_names","slider_stim_modal_response_agreement","slider_stim_modal_response"
NA,"stimulus-image-roundslider-response-dynamic",2,39963,"0.0-2.0","p103011","A1F1TBDHPYAAXT","R_VL4XPVqeHRlxtvj","3S4AW7T80BJ0M26MAIZNBJSKCR94LO","30Y6N4AHYPXL2CMYIBSABF0Y3M1RDO",2020-07-14 18:23:01,1,0,NA,10260.6599999999,40,352,"images/VCS_40.png","undelayed",1,1,1,"response",48,40,138,90,"VCS_40.png","VCS_138.png",NA,0,0,-214,0,"n","VCS_40.png",38,1.60526315789474,0.639344262295082,0.622950819672131,0.0349726775956284,0.236842105263158,"x",0.0789473684210526,"cross",NA,NA,NA,NA,NA,NA,NA,NA,NA,NA
NA,"stimulus-image-roundslider-response-dynamic",3,50993,"0.0-3.0","p103011","A1F1TBDHPYAAXT","R_VL4XPVqeHRlxtvj","3S4AW7T80BJ0M26MAIZNBJSKCR94LO","30Y6N4AHYPXL2CMYIBSABF0Y3M1RDO",2020-07-14 18:23:01,1,0,NA,11013.934999999,337,253,"images/VCS_340.png","undelayed",1,2,2,"response",84,340,174,90,"VCS_340.png","VCS_174.png",NA,-3,-3,-79,3,"n","VCS_340.png",38,1.63157894736842,0.483870967741935,0.451612903225806,0.193019566367002,0.710526315789474,"star",0.342105263157895,"star",NA,NA,NA,NA,NA,NA,NA,NA,NA,NA
NA,"stimulus-image-roundslider-response-dynamic",4,61729,"0.0-4.0","p103011","A1F1TBDHPYAAXT","R_VL4XPVqeHRlxtvj","3S4AW7T80BJ0M26MAIZNBJSKCR94LO","30Y6N4AHYPXL2CMYIBSABF0Y3M1RDO",2020-07-14 18:23:01,1,0,NA,10721.5950000027,186,234,"images/VCS_190.png","undelayed",1,3,3,"response",312,190,42,90,"VCS_190.png","VCS_42.png",NA,-4,-4,-192,4,"n","VCS_190.png",38,1.44736842105263,0.690909090909091,0.690909090909091,0.0168350168350168,0.105263157894737,"shield,badge",0.105263157894737,"shield",NA,NA,NA,NA,NA,NA,NA,NA,NA,NA
NA,"stimulus-image-roundslider-response-dynamic",5,71281,"0.0-5.0","p103011","A1F1TBDHPYAAXT","R_VL4XPVqeHRlxtvj","3S4AW7T80BJ0M26MAIZNBJSKCR94LO","30Y6N4AHYPXL2CMYIBSABF0Y3M1RDO",2020-07-14 18:23:01,1,0,NA,9536.82000000117,66,354,"images/VCS_70.png","undelayed",1,4,4,"response",72,70,162,90,"VCS_70.png","VCS_162.png",NA,-4,-4,-192,4,"n","VCS_70.png",38,1.36842105263158,0.730769230769231,0.730769230769231,0.0211161387631976,0.157894736842105,"x",0.105263157894737,"blob",NA,NA,NA,NA,NA,NA,NA,NA,NA,NA
NA,"stimulus-image-roundslider-response-dynamic",6,87319,"0.0-6.0","p103011","A1F1TBDHPYAAXT","R_VL4XPVqeHRlxtvj","3S4AW7T80BJ0M26MAIZNBJSKCR94LO","30Y6N4AHYPXL2CMYIBSABF0Y3M1RDO",2020-07-14 18:23:01,1,0,NA,16027.2000000004,265,229,"images/VCS_280.png","undelayed",1,5,5,"response",36,280,126,90,"VCS_280.png","VCS_126.png",NA,-15,-15,-103,15,"n","VCS_280.png",38,1.55263157894737,0.423728813559322,0.406779661016949,0.147282291057861,0.578947368421053,"star",0.236842105263158,"star",NA,NA,NA,NA,NA,NA,NA,NA,NA,NA
NA,"stimulus-image-roundslider-response-dynamic",7,101296,"0.0-7.0","p103011","A1F1TBDHPYAAXT","R_VL4XPVqeHRlxtvj","3S4AW7T80BJ0M26MAIZNBJSKCR94LO","30Y6N4AHYPXL2CMYIBSABF0Y3M1RDO",2020-07-14 18:23:01,1,0,NA,13966.9099999992,301,133,"images/VCS_310.png","undelayed",1,6,6,"response",168,310,258,90,"VCS_310.png","VCS_258.png",NA,-9,-9,125,9,"n","VCS_310.png",38,1.65789473684211,0.555555555555556,0.53968253968254,0.123911930363543,0.578947368421053,"star",0.236842105263158,"star",NA,NA,NA,NA,NA,NA,NA,NA,NA,NA
NA,"stimulus-image-roundslider-response-dynamic",13,145879,"0.0-13.0","p103011","A1F1TBDHPYAAXT","R_VL4XPVqeHRlxtvj","3S4AW7T80BJ0M26MAIZNBJSKCR94LO","30Y6N4AHYPXL2CMYIBSABF0Y3M1RDO",2020-07-14 18:23:01,1,0,NA,9970.79000000303,327,33,"images/blank_canvas.png","delayed",1,1,1,"response",294,340,24,90,"VCS_340.png","VCS_24.png",NA,-13,-13,-9,13,"n","VCS_340.png",38,1.63157894736842,0.483870967741935,0.451612903225806,0.193019566367002,0.710526315789474,"star",0.342105263157895,"star",NA,NA,NA,NA,NA,NA,NA,NA,NA,NA
NA,"stimulus-image-roundslider-response-dynamic",18,160655,"0.0-18.0","p103011","A1F1TBDHPYAAXT","R_VL4XPVqeHRlxtvj","3S4AW7T80BJ0M26MAIZNBJSKCR94LO","30Y6N4AHYPXL2CMYIBSABF0Y3M1RDO",2020-07-14 18:23:01,1,0,NA,9097.7950000015,301,109,"images/blank_canvas.png","delayed",1,2,2,"response",192,310,282,90,"VCS_310.png","VCS_282.png",NA,-9,-9,173,9,"n","VCS_310.png",38,1.65789473684211,0.555555555555556,0.53968253968254,0.123911930363543,0.578947368421053,"star",0.236842105263158,"star",NA,NA,NA,NA,NA,NA,NA,NA,NA,NA
NA,"stimulus-image-roundslider-response-dynamic",23,180650,"0.0-23.0","p103011","A1F1TBDHPYAAXT","R_VL4XPVqeHRlxtvj","3S4AW7T80BJ0M26MAIZNBJSKCR94LO","30Y6N4AHYPXL2CMYIBSABF0Y3M1RDO",2020-07-14 18:23:01,1,0,NA,15221.0149999992,71,191,"images/blank_canvas.png","delayed",1,3,3,"response",240,70,330,90,"VCS_70.png","VCS_330.png",NA,1,1,139,1,"n","VCS_70.png",38,1.36842105263158,0.730769230769231,0.730769230769231,0.0211161387631976,0.157894736842105,"x",0.105263157894737,"blob","VCS_330.png",40,1.575,0.46031746031746,0.444444444444444,0.213517665130568,0.725,"star",0.275,"star"
NA,"stimulus-image-roundslider-response-dynamic",28,193919,"0.0-28.0","p103011","A1F1TBDHPYAAXT","R_VL4XPVqeHRlxtvj","3S4AW7T80BJ0M26MAIZNBJSKCR94LO","30Y6N4AHYPXL2CMYIBSABF0Y3M1RDO",2020-07-14 18:23:01,1,0,NA,6929.11500000264,218,290,"images/blank_canvas.png","delayed",1,4,4,"response",288,220,18,90,"VCS_220.png","VCS_18.png",NA,-2,-2,-272,2,"n","VCS_220.png",38,1.18421052631579,0.377777777777778,0.377777777777778,0.262626262626263,0.605263157894737,"pentagon",0.526315789473684,"pentagon",NA,NA,NA,NA,NA,NA,NA,NA,NA,NA
NA,"stimulus-image-roundslider-response-dynamic",33,218615,"0.0-33.0","p103011","A1F1TBDHPYAAXT","R_VL4XPVqeHRlxtvj","3S4AW7T80BJ0M26MAIZNBJSKCR94LO","30Y6N4AHYPXL2CMYIBSABF0Y3M1RDO",2020-07-14 18:23:01,1,0,NA,18499.3449999965,153,183,"images/blank_canvas.png","delayed",1,5,5,"response",330,160,60,90,"VCS_160.png","VCS_60.png",NA,-7,-7,-123,7,"n","VCS_160.png",38,1.39473684210526,0.547169811320755,0.547169811320755,0.0515239477503628,0.263157894736842,"vase",0.184210526315789,"vase","VCS_60.png",40,1.25,0.72,0.7,0.0489795918367347,0.275,"blob",0.275,"blob"
NA,"stimulus-image-roundslider-response-dynamic",38,230286,"0.0-38.0","p103011","A1F1TBDHPYAAXT","R_VL4XPVqeHRlxtvj","3S4AW7T80BJ0M26MAIZNBJSKCR94LO","30Y6N4AHYPXL2CMYIBSABF0Y3M1RDO",2020-07-14 18:23:01,1,0,NA,5162.74499999781,98,338,"images/blank_canvas.png","delayed",1,6,6,"response",120,100,210,90,"VCS_100.png","VCS_210.png",NA,-2,-2,-128,2,"n","VCS_100.png",38,1.47368421052632,0.785714285714286,0.75,0.0136363636363636,0.105263157894737,"bunny,rabbit",0.0789473684210526,"rabbit","VCS_210.png",40,1.325,0.547169811320755,0.547169811320755,0.129898403483309,0.475,"pentagon",0.35,"pentagon"
NA,"stimulus-image-roundslider-response-dynamic",43,239519,"0.0-43.0","p103011","A1F1TBDHPYAAXT","R_VL4XPVqeHRlxtvj","3S4AW7T80BJ0M26MAIZNBJSKCR94LO","30Y6N4AHYPXL2CMYIBSABF0Y3M1RDO",2020-07-14 18:23:01,1,0,NA,3998.85500000164,191,341,"images/blank_canvas.png","delayed",1,7,7,"response",210,190,300,90,"VCS_190.png","VCS_300.png",NA,1,1,-41,1,"n","VCS_190.png",38,1.44736842105263,0.690909090909091,0.690909090909091,0.0168350168350168,0.105263157894737,"shield,badge",0.105263157894737,"shield","VCS_300.png",40,1.55,0.451612903225806,0.451612903225806,0.116340560549974,0.5,"star",0.25,"star"
NA,"stimulus-image-roundslider-response-dynamic",48,256471,"0.0-48.0","p103011","A1F1TBDHPYAAXT","R_VL4XPVqeHRlxtvj","3S4AW7T80BJ0M26MAIZNBJSKCR94LO","30Y6N4AHYPXL2CMYIBSABF0Y3M1RDO",2020-07-14 18:23:01,1,0,NA,11781.0750000026,235,55,"images/blank_canvas.png","delayed",1,8,8,"response",180,250,270,90,"VCS_250.png","VCS_270.png",NA,-15,-15,215,15,"n","VCS_250.png",38,1.71052631578947,0.461538461538462,0.430769230769231,0.124038461538462,0.578947368421053,"star",0.184210526315789,"star","VCS_270.png",40,1.55,0.467741935483871,0.451612903225806,0.132734003172924,0.55,"star",0.225,"star"
NA,"stimulus-image-roundslider-response-dynamic",53,282126,"0.0-53.0","p103011","A1F1TBDHPYAAXT","R_VL4XPVqeHRlxtvj","3S4AW7T80BJ0M26MAIZNBJSKCR94LO","30Y6N4AHYPXL2CMYIBSABF0Y3M1RDO",2020-07-14 18:23:01,1,0,NA,19918.4550000028,153,279,"images/blank_canvas.png","delayed",1,9,9,"response",234,130,324,90,"VCS_130.png","VCS_324.png",NA,23,23,45,23,"n","VCS_130.png",37,1.51351351351351,0.714285714285714,0.714285714285714,0.0168831168831169,0.135135135135135,"face",0.0540540540540541,"vest,shirt,bunny,dog.face,vase",NA,NA,NA,NA,NA,NA,NA,NA,NA,NA
NA,"stimulus-image-roundslider-response-dynamic",58,297192,"0.0-58.0","p103011","A1F1TBDHPYAAXT","R_VL4XPVqeHRlxtvj","3S4AW7T80BJ0M26MAIZNBJSKCR94LO","30Y6N4AHYPXL2CMYIBSABF0Y3M1RDO",2020-07-14 18:23:01,1,0,NA,8854.20500000322,288,174,"images/blank_canvas.png","delayed",1,10,10,"response",114,280,204,90,"VCS_280.png","VCS_204.png",NA,8,8,30,8,"n","VCS_280.png",38,1.55263157894737,0.423728813559322,0.406779661016949,0.147282291057861,0.578947368421053,"star",0.236842105263158,"star",NA,NA,NA,NA,NA,NA,NA,NA,NA,NA
NA,"stimulus-image-roundslider-response-dynamic",63,310087,"0.0-63.0","p103011","A1F1TBDHPYAAXT","R_VL4XPVqeHRlxtvj","3S4AW7T80BJ0M26MAIZNBJSKCR94LO","30Y6N4AHYPXL2CMYIBSABF0Y3M1RDO",2020-07-14 18:23:01,1,0,NA,6972.09000000288,36,306,"images/blank_canvas.png","delayed",1,11,11,"response",90,40,180,90,"VCS_40.png","VCS_180.png",NA,-4,-4,-126,4,"n","VCS_40.png",38,1.60526315789474,0.639344262295082,0.622950819672131,0.0349726775956284,0.236842105263158,"x",0.0789473684210526,"cross","VCS_180.png",40,1.4,0.660714285714286,0.660714285714286,0.024025974025974,0.15,"bread",0.075,"bread.slice,vase,bread"
NA,"stimulus-image-roundslider-response-dynamic",68,321839,"0.0-68.0","p103011","A1F1TBDHPYAAXT","R_VL4XPVqeHRlxtvj","3S4AW7T80BJ0M26MAIZNBJSKCR94LO","30Y6N4AHYPXL2CMYIBSABF0Y3M1RDO",2020-07-14 18:23:01,1,0,NA,6306.28000000067,15,39,"images/blank_canvas.png","delayed",1,12,12,"response",336,10,66,90,"VCS_10.png","VCS_66.png",NA,5,5,27,5,"n","VCS_10.png",38,1.52631578947368,0.448275862068966,0.431034482758621,0.160919540229885,0.605263157894737,"star",0.315789473684211,"star",NA,NA,NA,NA,NA,NA,NA,NA,NA,NA
NA,"stimulus-image-roundslider-response-dynamic",73,332663,"0.0-73.0","p103011","A1F1TBDHPYAAXT","R_VL4XPVqeHRlxtvj","3S4AW7T80BJ0M26MAIZNBJSKCR94LO","30Y6N4AHYPXL2CMYIBSABF0Y3M1RDO",2020-07-14 18:23:01,1,0,NA,3898.83499999996,10,52,"images/blank_canvas.png","delayed",2,1,13,"response",318,10,48,90,"VCS_10.png","VCS_48.png",NA,0,0,-4,0,"n","VCS_10.png",38,1.52631578947368,0.448275862068966,0.431034482758621,0.160919540229885,0.605263157894737,"star",0.315789473684211,"star",NA,NA,NA,NA,NA,NA,NA,NA,NA,NA
NA,"stimulus-image-roundslider-response-dynamic",78,346749,"0.0-78.0","p103011","A1F1TBDHPYAAXT","R_VL4XPVqeHRlxtvj","3S4AW7T80BJ0M26MAIZNBJSKCR94LO","30Y6N4AHYPXL2CMYIBSABF0Y3M1RDO",2020-07-14 18:23:01,1,0,NA,9072.86499999824,85,217,"images/blank_canvas.png","delayed",2,2,14,"response",228,70,318,90,"VCS_70.png","VCS_318.png",NA,15,15,101,15,"n","VCS_70.png",38,1.36842105263158,0.730769230769231,0.730769230769231,0.0211161387631976,0.157894736842105,"x",0.105263157894737,"blob",NA,NA,NA,NA,NA,NA,NA,NA,NA,NA
NA,"stimulus-image-roundslider-response-dynamic",83,359966,"0.0-83.0","p103011","A1F1TBDHPYAAXT","R_VL4XPVqeHRlxtvj","3S4AW7T80BJ0M26MAIZNBJSKCR94LO","30Y6N4AHYPXL2CMYIBSABF0Y3M1RDO",2020-07-14 18:23:01,1,0,NA,7944.67000000074,86,200,"images/blank_canvas.png","delayed",2,3,15,"response",246,100,336,90,"VCS_100.png","VCS_336.png",NA,-14,-14,136,14,"n","VCS_100.png",38,1.47368421052632,0.785714285714286,0.75,0.0136363636363636,0.105263157894737,"bunny,rabbit",0.0789473684210526,"rabbit",NA,NA,NA,NA,NA,NA,NA,NA,NA,NA
NA,"stimulus-image-roundslider-response-dynamic",88,374103,"0.0-88.0","p103011","A1F1TBDHPYAAXT","R_VL4XPVqeHRlxtvj","3S4AW7T80BJ0M26MAIZNBJSKCR94LO","30Y6N4AHYPXL2CMYIBSABF0Y3M1RDO",2020-07-14 18:23:01,1,0,NA,9181.56500000262,34,250,"images/blank_canvas.png","delayed",2,4,16,"response",144,40,234,90,"VCS_40.png","VCS_234.png",NA,-6,-6,-16,6,"n","VCS_40.png",38,1.60526315789474,0.639344262295082,0.622950819672131,0.0349726775956284,0.236842105263158,"x",0.0789473684210526,"cross",NA,NA,NA,NA,NA,NA,NA,NA,NA,NA
NA,"stimulus-image-roundslider-response-dynamic",93,385678,"0.0-93.0","p103011","A1F1TBDHPYAAXT","R_VL4XPVqeHRlxtvj","3S4AW7T80BJ0M26MAIZNBJSKCR94LO","30Y6N4AHYPXL2CMYIBSABF0Y3M1RDO",2020-07-14 18:23:01,1,0,NA,6639.88000000245,243,87,"images/blank_canvas.png","delayed",2,5,17,"response",156,250,246,90,"VCS_250.png","VCS_246.png",NA,-7,-7,159,7,"n","VCS_250.png",38,1.71052631578947,0.461538461538462,0.430769230769231,0.124038461538462,0.578947368421053,"star",0.184210526315789,"star",NA,NA,NA,NA,NA,NA,NA,NA,NA,NA
NA,"stimulus-image-roundslider-response-dynamic",98,396054,"0.0-98.0","p103011","A1F1TBDHPYAAXT","R_VL4XPVqeHRlxtvj","3S4AW7T80BJ0M26MAIZNBJSKCR94LO","30Y6N4AHYPXL2CMYIBSABF0Y3M1RDO",2020-07-14 18:23:01,1,0,NA,4693.99999999948,158,104,"images/blank_canvas.png","delayed",2,6,18,"response",54,160,144,90,"VCS_160.png","VCS_144.png",NA,-2,-2,40,2,"n","VCS_160.png",38,1.39473684210526,0.547169811320755,0.547169811320755,0.0515239477503628,0.263157894736842,"vase",0.184210526315789,"vase",NA,NA,NA,NA,NA,NA,NA,NA,NA,NA
NA,"stimulus-image-roundslider-response-dynamic",103,410358,"0.0-103.0","p103011","A1F1TBDHPYAAXT","R_VL4XPVqeHRlxtvj","3S4AW7T80BJ0M26MAIZNBJSKCR94LO","30Y6N4AHYPXL2CMYIBSABF0Y3M1RDO",2020-07-14 18:23:01,1,0,NA,9023.42000000138,309,213,"images/blank_canvas.png","delayed",2,7,19,"response",96,310,186,90,"VCS_310.png","VCS_186.png",NA,-1,-1,-27,1,"n","VCS_310.png",38,1.65789473684211,0.555555555555556,0.53968253968254,0.123911930363543,0.578947368421053,"star",0.236842105263158,"star",NA,NA,NA,NA,NA,NA,NA,NA,NA,NA
NA,"stimulus-image-roundslider-response-dynamic",108,420414,"0.0-108.0","p103011","A1F1TBDHPYAAXT","R_VL4XPVqeHRlxtvj","3S4AW7T80BJ0M26MAIZNBJSKCR94LO","30Y6N4AHYPXL2CMYIBSABF0Y3M1RDO",2020-07-14 18:23:01,1,0,NA,4360.59999999998,269,161,"images/blank_canvas.png","delayed",2,8,20,"response",108,280,198,90,"VCS_280.png","VCS_198.png",NA,-11,-11,37,11,"n","VCS_280.png",38,1.55263157894737,0.423728813559322,0.406779661016949,0.147282291057861,0.578947368421053,"star",0.236842105263158,"star",NA,NA,NA,NA,NA,NA,NA,NA,NA,NA
NA,"stimulus-image-roundslider-response-dynamic",113,430905,"0.0-113.0","p103011","A1F1TBDHPYAAXT","R_VL4XPVqeHRlxtvj","3S4AW7T80BJ0M26MAIZNBJSKCR94LO","30Y6N4AHYPXL2CMYIBSABF0Y3M1RDO",2020-07-14 18:23:01,1,0,NA,5582.4649999995,218,320,"images/blank_canvas.png","delayed",2,9,21,"response",258,220,348,90,"VCS_220.png","VCS_348.png",NA,-2,-2,28,2,"n","VCS_220.png",38,1.18421052631579,0.377777777777778,0.377777777777778,0.262626262626263,0.605263157894737,"pentagon",0.526315789473684,"pentagon",NA,NA,NA,NA,NA,NA,NA,NA,NA,NA
NA,"stimulus-image-roundslider-response-dynamic",118,443911,"0.0-118.0","p103011","A1F1TBDHPYAAXT","R_VL4XPVqeHRlxtvj","3S4AW7T80BJ0M26MAIZNBJSKCR94LO","30Y6N4AHYPXL2CMYIBSABF0Y3M1RDO",2020-07-14 18:23:01,1,0,NA,7722.80500000127,327,177,"images/blank_canvas.png","delayed",2,10,22,"response",150,340,240,90,"VCS_340.png","VCS_240.png",NA,-13,-13,63,13,"n","VCS_340.png",38,1.63157894736842,0.483870967741935,0.451612903225806,0.193019566367002,0.710526315789474,"star",0.342105263157895,"star","VCS_240.png",40,1.525,0.344262295081967,0.344262295081967,0.143715846994536,0.525,"star",0.2,"star"
NA,"stimulus-image-roundslider-response-dynamic",123,454669,"0.0-123.0","p103011","A1F1TBDHPYAAXT","R_VL4XPVqeHRlxtvj","3S4AW7T80BJ0M26MAIZNBJSKCR94LO","30Y6N4AHYPXL2CMYIBSABF0Y3M1RDO",2020-07-14 18:23:01,1,0,NA,5628.01500000211,187,181,"images/blank_canvas.png","delayed",2,11,23,"response",6,190,96,90,"VCS_190.png","VCS_96.png",NA,-3,-3,-85,3,"n","VCS_190.png",38,1.44736842105263,0.690909090909091,0.690909090909091,0.0168350168350168,0.105263157894737,"shield,badge",0.105263157894737,"shield",NA,NA,NA,NA,NA,NA,NA,NA,NA,NA
NA,"stimulus-image-roundslider-response-dynamic",128,465871,"0.0-128.0","p103011","A1F1TBDHPYAAXT","R_VL4XPVqeHRlxtvj","3S4AW7T80BJ0M26MAIZNBJSKCR94LO","30Y6N4AHYPXL2CMYIBSABF0Y3M1RDO",2020-07-14 18:23:01,1,0,NA,5495.34499999933,145,253,"images/blank_canvas.png","delayed",2,12,24,"response",252,130,342,90,"VCS_130.png","VCS_342.png",NA,15,15,89,15,"n","VCS_130.png",37,1.51351351351351,0.714285714285714,0.714285714285714,0.0168831168831169,0.135135135135135,"face",0.0540540540540541,"vest,shirt,bunny,dog.face,vase",NA,NA,NA,NA,NA,NA,NA,NA,NA,NA
NA,"stimulus-image-roundslider-response-dynamic",134,493189,"0.0-134.0","p103011","A1F1TBDHPYAAXT","R_VL4XPVqeHRlxtvj","3S4AW7T80BJ0M26MAIZNBJSKCR94LO","30Y6N4AHYPXL2CMYIBSABF0Y3M1RDO",2020-07-14 18:23:01,1,0,NA,4390.625,335,149,"images/blank_canvas.png","delayed",3,1,25,"response",186,340,276,90,"VCS_340.png","VCS_276.png",NA,-5,-5,127,5,"n","VCS_340.png",38,1.63157894736842,0.483870967741935,0.451612903225806,0.193019566367002,0.710526315789474,"star",0.342105263157895,"star",NA,NA,NA,NA,NA,NA,NA,NA,NA,NA
NA,"stimulus-image-roundslider-response-dynamic",139,503822,"0.0-139.0","p103011","A1F1TBDHPYAAXT","R_VL4XPVqeHRlxtvj","3S4AW7T80BJ0M26MAIZNBJSKCR94LO","30Y6N4AHYPXL2CMYIBSABF0Y3M1RDO",2020-07-14 18:23:01,1,0,NA,5044.44499999954,283,157,"images/blank_canvas.png","delayed",3,2,26,"response",126,280,216,90,"VCS_280.png","VCS_216.png",NA,3,3,59,3,"n","VCS_280.png",38,1.55263157894737,0.423728813559322,0.406779661016949,0.147282291057861,0.578947368421053,"star",0.236842105263158,"star",NA,NA,NA,NA,NA,NA,NA,NA,NA,NA
NA,"stimulus-image-roundslider-response-dynamic",144,514270,"0.0-144.0","p103011","A1F1TBDHPYAAXT","R_VL4XPVqeHRlxtvj","3S4AW7T80BJ0M26MAIZNBJSKCR94LO","30Y6N4AHYPXL2CMYIBSABF0Y3M1RDO",2020-07-14 18:23:01,1,0,NA,5379.60499999824,95,113,"images/blank_canvas.png","delayed",3,3,27,"response",342,100,72,90,"VCS_100.png","VCS_72.png",NA,-5,-5,-41,5,"n","VCS_100.png",38,1.47368421052632,0.785714285714286,0.75,0.0136363636363636,0.105263157894737,"bunny,rabbit",0.0789473684210526,"rabbit",NA,NA,NA,NA,NA,NA,NA,NA,NA,NA
NA,"stimulus-image-roundslider-response-dynamic",149,525670,"0.0-149.0","p103011","A1F1TBDHPYAAXT","R_VL4XPVqeHRlxtvj","3S4AW7T80BJ0M26MAIZNBJSKCR94LO","30Y6N4AHYPXL2CMYIBSABF0Y3M1RDO",2020-07-14 18:23:01,1,0,NA,6385.58999999799,246,30,"images/blank_canvas.png","delayed",3,4,28,"response",216,250,306,90,"VCS_250.png","VCS_306.png",NA,-4,-4,276,4,"n","VCS_250.png",38,1.71052631578947,0.461538461538462,0.430769230769231,0.124038461538462,0.578947368421053,"star",0.184210526315789,"star",NA,NA,NA,NA,NA,NA,NA,NA,NA,NA
NA,"stimulus-image-roundslider-response-dynamic",154,535790,"0.0-154.0","p103011","A1F1TBDHPYAAXT","R_VL4XPVqeHRlxtvj","3S4AW7T80BJ0M26MAIZNBJSKCR94LO","30Y6N4AHYPXL2CMYIBSABF0Y3M1RDO",2020-07-14 18:23:01,1,0,NA,5096.82000000251,307,277,"images/blank_canvas.png","delayed",3,5,29,"response",30,310,120,90,"VCS_310.png","VCS_120.png",NA,-3,-3,-157,3,"n","VCS_310.png",38,1.65789473684211,0.555555555555556,0.53968253968254,0.123911930363543,0.578947368421053,"star",0.236842105263158,"star","VCS_120.png",40,1.35,0.62962962962963,0.62962962962963,0.039832285115304,0.225,"rabbit",0.2,"rabbit"
NA,"stimulus-image-roundslider-response-dynamic",159,548117,"0.0-159.0","p103011","A1F1TBDHPYAAXT","R_VL4XPVqeHRlxtvj","3S4AW7T80BJ0M26MAIZNBJSKCR94LO","30Y6N4AHYPXL2CMYIBSABF0Y3M1RDO",2020-07-14 18:23:01,1,0,NA,7364.16499999899,65,323,"images/blank_canvas.png","delayed",3,6,30,"response",102,70,192,90,"VCS_70.png","VCS_192.png",NA,-5,-5,-131,5,"n","VCS_70.png",38,1.36842105263158,0.730769230769231,0.730769230769231,0.0211161387631976,0.157894736842105,"x",0.105263157894737,"blob",NA,NA,NA,NA,NA,NA,NA,NA,NA,NA
NA,"stimulus-image-roundslider-response-dynamic",164,561789,"0.0-164.0","p103011","A1F1TBDHPYAAXT","R_VL4XPVqeHRlxtvj","3S4AW7T80BJ0M26MAIZNBJSKCR94LO","30Y6N4AHYPXL2CMYIBSABF0Y3M1RDO",2020-07-14 18:23:01,1,0,NA,8886.22000000032,98,326,"images/blank_canvas.png","delayed",3,7,31,"response",132,160,222,90,"VCS_160.png","VCS_222.png",NA,-62,-62,-104,62,"n","VCS_160.png",38,1.39473684210526,0.547169811320755,0.547169811320755,0.0515239477503628,0.263157894736842,"vase",0.184210526315789,"vase",NA,NA,NA,NA,NA,NA,NA,NA,NA,NA
NA,"stimulus-image-roundslider-response-dynamic",169,576996,"0.0-169.0","p103011","A1F1TBDHPYAAXT","R_VL4XPVqeHRlxtvj","3S4AW7T80BJ0M26MAIZNBJSKCR94LO","30Y6N4AHYPXL2CMYIBSABF0Y3M1RDO",2020-07-14 18:23:01,1,0,NA,10394.5550000026,228,318,"images/blank_canvas.png","delayed",3,8,32,"response",270,220,360,90,"VCS_220.png","VCS_360.png",NA,8,8,42,8,"n","VCS_220.png",38,1.18421052631579,0.377777777777778,0.377777777777778,0.262626262626263,0.605263157894737,"pentagon",0.526315789473684,"pentagon","VCS_360.png",40,1.6,0.453125,0.453125,0.109623015873016,0.5,"star",0.275,"star"
NA,"stimulus-image-roundslider-response-dynamic",174,588124,"0.0-174.0","p103011","A1F1TBDHPYAAXT","R_VL4XPVqeHRlxtvj","3S4AW7T80BJ0M26MAIZNBJSKCR94LO","30Y6N4AHYPXL2CMYIBSABF0Y3M1RDO",2020-07-14 18:23:01,1,0,NA,6242.11500000092,20,98,"images/blank_canvas.png","delayed",3,9,33,"response",282,10,12,90,"VCS_10.png","VCS_12.png",NA,10,10,-86,10,"n","VCS_10.png",38,1.52631578947368,0.448275862068966,0.431034482758621,0.160919540229885,0.605263157894737,"star",0.315789473684211,"star",NA,NA,NA,NA,NA,NA,NA,NA,NA,NA
NA,"stimulus-image-roundslider-response-dynamic",179,602628,"0.0-179.0","p103011","A1F1TBDHPYAAXT","R_VL4XPVqeHRlxtvj","3S4AW7T80BJ0M26MAIZNBJSKCR94LO","30Y6N4AHYPXL2CMYIBSABF0Y3M1RDO",2020-07-14 18:23:01,1,0,NA,8687.1300000021,176,134,"images/blank_canvas.png","delayed",3,10,34,"response",42,190,132,90,"VCS_190.png","VCS_132.png",NA,-14,-14,-2,14,"n","VCS_190.png",38,1.44736842105263,0.690909090909091,0.690909090909091,0.0168350168350168,0.105263157894737,"shield,badge",0.105263157894737,"shield",NA,NA,NA,NA,NA,NA,NA,NA,NA,NA
NA,"stimulus-image-roundslider-response-dynamic",184,614228,"0.0-184.0","p103011","A1F1TBDHPYAAXT","R_VL4XPVqeHRlxtvj","3S4AW7T80BJ0M26MAIZNBJSKCR94LO","30Y6N4AHYPXL2CMYIBSABF0Y3M1RDO",2020-07-14 18:23:01,1,0,NA,6912.52499999979,36,234,"images/blank_canvas.png","delayed",3,11,35,"response",162,40,252,90,"VCS_40.png","VCS_252.png",NA,-4,-4,18,4,"n","VCS_40.png",38,1.60526315789474,0.639344262295082,0.622950819672131,0.0349726775956284,0.236842105263158,"x",0.0789473684210526,"cross",NA,NA,NA,NA,NA,NA,NA,NA,NA,NA
NA,"stimulus-image-roundslider-response-dynamic",189,625437,"0.0-189.0","p103011","A1F1TBDHPYAAXT","R_VL4XPVqeHRlxtvj","3S4AW7T80BJ0M26MAIZNBJSKCR94LO","30Y6N4AHYPXL2CMYIBSABF0Y3M1RDO",2020-07-14 18:23:01,1,0,NA,6473.00499999989,101,107,"images/blank_canvas.png","delayed",3,12,36,"response",354,130,84,90,"VCS_130.png","VCS_84.png",NA,-29,-29,-23,29,"n","VCS_130.png",37,1.51351351351351,0.714285714285714,0.714285714285714,0.0168831168831169,0.135135135135135,"face",0.0540540540540541,"vest,shirt,bunny,dog.face,vase",NA,NA,NA,NA,NA,NA,NA,NA,NA,NA
NA,"stimulus-image-roundslider-response-dynamic",194,640683,"0.0-194.0","p103011","A1F1TBDHPYAAXT","R_VL4XPVqeHRlxtvj","3S4AW7T80BJ0M26MAIZNBJSKCR94LO","30Y6N4AHYPXL2CMYIBSABF0Y3M1RDO",2020-07-14 18:23:01,1,0,NA,8999.67000000109,321,255,"images/blank_canvas.png","delayed",4,1,37,"response",66,310,156,90,"VCS_310.png","VCS_156.png",NA,11,11,-99,11,"n","VCS_310.png",38,1.65789473684211,0.555555555555556,0.53968253968254,0.123911930363543,0.578947368421053,"star",0.236842105263158,"star",NA,NA,NA,NA,NA,NA,NA,NA,NA,NA
NA,"stimulus-image-roundslider-response-dynamic",199,653925,"0.0-199.0","p103011","A1F1TBDHPYAAXT","R_VL4XPVqeHRlxtvj","3S4AW7T80BJ0M26MAIZNBJSKCR94LO","30Y6N4AHYPXL2CMYIBSABF0Y3M1RDO",2020-07-14 18:23:01,1,0,NA,7661.51499999978,282,270,"images/blank_canvas.png","delayed",4,2,38,"response",12,250,102,90,"VCS_250.png","VCS_102.png",NA,32,32,-168,32,"n","VCS_250.png",38,1.71052631578947,0.461538461538462,0.430769230769231,0.124038461538462,0.578947368421053,"star",0.184210526315789,"star",NA,NA,NA,NA,NA,NA,NA,NA,NA,NA
NA,"stimulus-image-roundslider-response-dynamic",204,662892,"0.0-204.0","p103011","A1F1TBDHPYAAXT","R_VL4XPVqeHRlxtvj","3S4AW7T80BJ0M26MAIZNBJSKCR94LO","30Y6N4AHYPXL2CMYIBSABF0Y3M1RDO",2020-07-14 18:23:01,1,0,NA,3895.28499999875,287,89,"images/blank_canvas.png","delayed",4,3,39,"response",198,280,288,90,"VCS_280.png","VCS_288.png",NA,7,7,199,7,"n","VCS_280.png",38,1.55263157894737,0.423728813559322,0.406779661016949,0.147282291057861,0.578947368421053,"star",0.236842105263158,"star",NA,NA,NA,NA,NA,NA,NA,NA,NA,NA
NA,"stimulus-image-roundslider-response-dynamic",209,674884,"0.0-209.0","p103011","A1F1TBDHPYAAXT","R_VL4XPVqeHRlxtvj","3S4AW7T80BJ0M26MAIZNBJSKCR94LO","30Y6N4AHYPXL2CMYIBSABF0Y3M1RDO",2020-07-14 18:23:01,1,0,NA,7087.1599999991,147,303,"images/blank_canvas.png","delayed",4,4,40,"response",204,130,294,90,"VCS_130.png","VCS_294.png",NA,17,17,-9,17,"n","VCS_130.png",37,1.51351351351351,0.714285714285714,0.714285714285714,0.0168831168831169,0.135135135135135,"face",0.0540540540540541,"vest,shirt,bunny,dog.face,vase",NA,NA,NA,NA,NA,NA,NA,NA,NA,NA
NA,"stimulus-image-roundslider-response-dynamic",214,691275,"0.0-214.0","p103011","A1F1TBDHPYAAXT","R_VL4XPVqeHRlxtvj","3S4AW7T80BJ0M26MAIZNBJSKCR94LO","30Y6N4AHYPXL2CMYIBSABF0Y3M1RDO",2020-07-14 18:23:01,1,0,NA,11808.0550000013,324,246,"images/blank_canvas.png","delayed",4,5,41,"response",78,340,168,90,"VCS_340.png","VCS_168.png",NA,-16,-16,-78,16,"n","VCS_340.png",38,1.63157894736842,0.483870967741935,0.451612903225806,0.193019566367002,0.710526315789474,"star",0.342105263157895,"star",NA,NA,NA,NA,NA,NA,NA,NA,NA,NA
NA,"stimulus-image-roundslider-response-dynamic",219,704707,"0.0-219.0","p103011","A1F1TBDHPYAAXT","R_VL4XPVqeHRlxtvj","3S4AW7T80BJ0M26MAIZNBJSKCR94LO","30Y6N4AHYPXL2CMYIBSABF0Y3M1RDO",2020-07-14 18:23:01,1,0,NA,8531.60000000207,186,270,"images/blank_canvas.png","delayed",4,6,42,"response",276,190,6,90,"VCS_190.png","VCS_6.png",NA,-4,-4,-264,4,"n","VCS_190.png",38,1.44736842105263,0.690909090909091,0.690909090909091,0.0168350168350168,0.105263157894737,"shield,badge",0.105263157894737,"shield",NA,NA,NA,NA,NA,NA,NA,NA,NA,NA
NA,"stimulus-image-roundslider-response-dynamic",224,712751,"0.0-224.0","p103011","A1F1TBDHPYAAXT","R_VL4XPVqeHRlxtvj","3S4AW7T80BJ0M26MAIZNBJSKCR94LO","30Y6N4AHYPXL2CMYIBSABF0Y3M1RDO",2020-07-14 18:23:01,1,0,NA,3342.13000000082,104,80,"images/blank_canvas.png","delayed",4,7,43,"response",24,100,114,90,"VCS_100.png","VCS_114.png",NA,4,4,34,4,"n","VCS_100.png",38,1.47368421052632,0.785714285714286,0.75,0.0136363636363636,0.105263157894737,"bunny,rabbit",0.0789473684210526,"rabbit",NA,NA,NA,NA,NA,NA,NA,NA,NA,NA
NA,"stimulus-image-roundslider-response-dynamic",229,726596,"0.0-229.0","p103011","A1F1TBDHPYAAXT","R_VL4XPVqeHRlxtvj","3S4AW7T80BJ0M26MAIZNBJSKCR94LO","30Y6N4AHYPXL2CMYIBSABF0Y3M1RDO",2020-07-14 18:23:01,1,0,NA,8503.79500000062,32,14,"images/blank_canvas.png","delayed",4,8,44,"response",18,40,108,90,"VCS_40.png","VCS_108.png",NA,-8,-8,94,8,"n","VCS_40.png",38,1.60526315789474,0.639344262295082,0.622950819672131,0.0349726775956284,0.236842105263158,"x",0.0789473684210526,"cross",NA,NA,NA,NA,NA,NA,NA,NA,NA,NA
NA,"stimulus-image-roundslider-response-dynamic",234,738764,"0.0-234.0","p103011","A1F1TBDHPYAAXT","R_VL4XPVqeHRlxtvj","3S4AW7T80BJ0M26MAIZNBJSKCR94LO","30Y6N4AHYPXL2CMYIBSABF0Y3M1RDO",2020-07-14 18:23:01,1,0,NA,6044.66999999923,154,166,"images/blank_canvas.png","delayed",4,9,45,"response",348,160,78,90,"VCS_160.png","VCS_78.png",NA,-6,-6,-88,6,"n","VCS_160.png",38,1.39473684210526,0.547169811320755,0.547169811320755,0.0515239477503628,0.263157894736842,"vase",0.184210526315789,"vase",NA,NA,NA,NA,NA,NA,NA,NA,NA,NA
NA,"stimulus-image-roundslider-response-dynamic",239,759252,"0.0-239.0","p103011","A1F1TBDHPYAAXT","R_VL4XPVqeHRlxtvj","3S4AW7T80BJ0M26MAIZNBJSKCR94LO","30Y6N4AHYPXL2CMYIBSABF0Y3M1RDO",2020-07-14 18:23:01,1,0,NA,15952.8699999973,65,101,"images/blank_canvas.png","delayed",4,10,46,"response",324,70,54,90,"VCS_70.png","VCS_54.png",NA,-5,-5,-47,5,"n","VCS_70.png",38,1.36842105263158,0.730769230769231,0.730769230769231,0.0211161387631976,0.157894736842105,"x",0.105263157894737,"blob",NA,NA,NA,NA,NA,NA,NA,NA,NA,NA
NA,"stimulus-image-roundslider-response-dynamic",244,770395,"0.0-244.0","p103011","A1F1TBDHPYAAXT","R_VL4XPVqeHRlxtvj","3S4AW7T80BJ0M26MAIZNBJSKCR94LO","30Y6N4AHYPXL2CMYIBSABF0Y3M1RDO",2020-07-14 18:23:01,1,0,NA,5948.30000000005,233,233,"images/blank_canvas.png","delayed",4,11,47,"response",0,220,90,90,"VCS_220.png","VCS_90.png",NA,13,13,-143,13,"n","VCS_220.png",38,1.18421052631579,0.377777777777778,0.377777777777778,0.262626262626263,0.605263157894737,"pentagon",0.526315789473684,"pentagon","VCS_90.png",40,1.4,0.678571428571429,0.678571428571429,0.0285714285714286,0.175,"rabbit",0.15,"rabbit"
NA,"stimulus-image-roundslider-response-dynamic",249,784643,"0.0-249.0","p103011","A1F1TBDHPYAAXT","R_VL4XPVqeHRlxtvj","3S4AW7T80BJ0M26MAIZNBJSKCR94LO","30Y6N4AHYPXL2CMYIBSABF0Y3M1RDO",2020-07-14 18:23:01,1,0,NA,8431.71000000078,351,45,"images/blank_canvas.png","delayed",4,12,48,"response",306,10,36,90,"VCS_10.png","VCS_36.png",NA,341,-19,-9,19,"n","VCS_10.png",38,1.52631578947368,0.448275862068966,0.431034482758621,0.160919540229885,0.605263157894737,"star",0.315789473684211,"star",NA,NA,NA,NA,NA,NA,NA,NA,NA,NA
NA,"stimulus-image-roundslider-response-dynamic",251,812763,"0.0-251.0","p103011","A1F1TBDHPYAAXT","R_VL4XPVqeHRlxtvj","3S4AW7T80BJ0M26MAIZNBJSKCR94LO","30Y6N4AHYPXL2CMYIBSABF0Y3M1RDO",2020-07-14 18:23:01,1,0,NA,14732.2450000029,99,321,"images/VCS_100.png","undelayed",1,7,7,"response",138,100,228,90,"VCS_100.png","VCS_228.png",NA,-1,-1,-93,1,"n","VCS_100.png",38,1.47368421052632,0.785714285714286,0.75,0.0136363636363636,0.105263157894737,"bunny,rabbit",0.0789473684210526,"rabbit",NA,NA,NA,NA,NA,NA,NA,NA,NA,NA
NA,"stimulus-image-roundslider-response-dynamic",252,821522,"0.0-252.0","p103011","A1F1TBDHPYAAXT","R_VL4XPVqeHRlxtvj","3S4AW7T80BJ0M26MAIZNBJSKCR94LO","30Y6N4AHYPXL2CMYIBSABF0Y3M1RDO",2020-07-14 18:23:01,1,0,NA,8746.76999999792,128,68,"images/VCS_130.png","undelayed",1,8,8,"response",60,130,150,90,"VCS_130.png","VCS_150.png",NA,-2,-2,82,2,"n","VCS_130.png",37,1.51351351351351,0.714285714285714,0.714285714285714,0.0168831168831169,0.135135135135135,"face",0.0540540540540541,"vest,shirt,bunny,dog.face,vase","VCS_150.png",40,1.45,0.637931034482759,0.637931034482759,0.044162129461585,0.25,"vase",0.225,"vase"
NA,"stimulus-image-roundslider-response-dynamic",253,831578,"0.0-253.0","p103011","A1F1TBDHPYAAXT","R_VL4XPVqeHRlxtvj","3S4AW7T80BJ0M26MAIZNBJSKCR94LO","30Y6N4AHYPXL2CMYIBSABF0Y3M1RDO",2020-07-14 18:23:01,1,0,NA,10045.5450000009,251,77,"images/VCS_250.png","undelayed",1,9,9,"response",174,250,264,90,"VCS_250.png","VCS_264.png",NA,1,1,187,1,"n","VCS_250.png",38,1.71052631578947,0.461538461538462,0.430769230769231,0.124038461538462,0.578947368421053,"star",0.184210526315789,"star",NA,NA,NA,NA,NA,NA,NA,NA,NA,NA
NA,"stimulus-image-roundslider-response-dynamic",254,841340,"0.0-254.0","p103011","A1F1TBDHPYAAXT","R_VL4XPVqeHRlxtvj","3S4AW7T80BJ0M26MAIZNBJSKCR94LO","30Y6N4AHYPXL2CMYIBSABF0Y3M1RDO",2020-07-14 18:23:01,1,0,NA,9750.08000000159,15,153,"images/VCS_10.png","undelayed",1,10,10,"response",222,10,312,90,"VCS_10.png","VCS_312.png",NA,5,5,159,5,"n","VCS_10.png",38,1.52631578947368,0.448275862068966,0.431034482758621,0.160919540229885,0.605263157894737,"star",0.315789473684211,"star",NA,NA,NA,NA,NA,NA,NA,NA,NA,NA
NA,"stimulus-image-roundslider-response-dynamic",255,849475,"0.0-255.0","p103011","A1F1TBDHPYAAXT","R_VL4XPVqeHRlxtvj","3S4AW7T80BJ0M26MAIZNBJSKCR94LO","30Y6N4AHYPXL2CMYIBSABF0Y3M1RDO",2020-07-14 18:23:01,1,0,NA,8122.37000000093,217,277,"images/VCS_220.png","undelayed",1,11,11,"response",300,220,30,90,"VCS_220.png","VCS_30.png",NA,-3,-3,-247,3,"n","VCS_220.png",38,1.18421052631579,0.377777777777778,0.377777777777778,0.262626262626263,0.605263157894737,"pentagon",0.526315789473684,"pentagon","VCS_30.png",40,1.45,0.655172413793103,0.655172413793103,0.0326678765880218,0.225,"star",0.15,"star"
NA,"stimulus-image-roundslider-response-dynamic",256,861851,"0.0-256.0","p103011","A1F1TBDHPYAAXT","R_VL4XPVqeHRlxtvj","3S4AW7T80BJ0M26MAIZNBJSKCR94LO","30Y6N4AHYPXL2CMYIBSABF0Y3M1RDO",2020-07-14 18:23:01,1,0,NA,12363.9549999972,164,260,"images/VCS_160.png","undelayed",1,12,12,"response",264,160,354,90,"VCS_160.png","VCS_354.png",NA,4,4,94,4,"n","VCS_160.png",38,1.39473684210526,0.547169811320755,0.547169811320755,0.0515239477503628,0.263157894736842,"vase",0.184210526315789,"vase",NA,NA,NA,NA,NA,NA,NA,NA,NA,NA
NA,"stimulus-image-roundslider-response-dynamic",2,51485,"0.0-2.0","p125392","A3BVF2FDVGPSDC","R_1H6LzethwUFdUBk","37M28K1J0QE9T1Y3GYX1871S05YJAW","3MIVREZQVHZT4HD8XDPXA2LJR81QK2",2020-07-13 19:13:31,2,1,NA,32007.9699999987,203,166,"images/VCS_200.png","undelayed",1,1,1,"response",37,200,127,90,"VCS_200.png","VCS_127.png",NA,3,3,-39,3,"n","VCS_200.png",37,1.45945945945946,0.759259259259259,0.759259259259259,0.0349406009783368,0.27027027027027,"pentagon",0.243243243243243,"pentagon",NA,NA,NA,NA,NA,NA,NA,NA,NA,NA
NA,"stimulus-image-roundslider-response-dynamic",3,78146,"0.0-3.0","p125392","A3BVF2FDVGPSDC","R_1H6LzethwUFdUBk","37M28K1J0QE9T1Y3GYX1871S05YJAW","3MIVREZQVHZT4HD8XDPXA2LJR81QK2",2020-07-13 19:13:31,2,1,NA,26653.3199999976,263,100,"images/VCS_260.png","undelayed",1,2,2,"response",163,260,253,90,"VCS_260.png","VCS_253.png",NA,3,3,153,3,"n","VCS_260.png",37,1.54054054054054,0.596491228070175,0.578947368421053,0.0921052631578947,0.459459459459459,"star",0.216216216216216,"star",NA,NA,NA,NA,NA,NA,NA,NA,NA,NA
NA,"stimulus-image-roundslider-response-dynamic",4,90995,"0.0-4.0","p125392","A3BVF2FDVGPSDC","R_1H6LzethwUFdUBk","37M28K1J0QE9T1Y3GYX1871S05YJAW","3MIVREZQVHZT4HD8XDPXA2LJR81QK2",2020-07-13 19:13:31,2,1,NA,12841.1549999983,47,64,"images/VCS_50.png","undelayed",1,3,3,"response",343,50,73,90,"VCS_50.png","VCS_73.png",NA,-3,-3,9,3,"n","VCS_50.png",37,1.64864864864865,0.655737704918033,0.622950819672131,0.0224043715846995,0.135135135135135,"splat",0.135135135135135,"splat",NA,NA,NA,NA,NA,NA,NA,NA,NA,NA
NA,"stimulus-image-roundslider-response-dynamic",5,104156,"0.0-5.0","p125392","A3BVF2FDVGPSDC","R_1H6LzethwUFdUBk","37M28K1J0QE9T1Y3GYX1871S05YJAW","3MIVREZQVHZT4HD8XDPXA2LJR81QK2",2020-07-13 19:13:31,2,1,NA,13151.7749999985,23,22,"images/VCS_20.png","undelayed",1,4,4,"response",1,20,91,90,"VCS_20.png","VCS_91.png",NA,3,3,69,3,"n","VCS_20.png",37,1.54054054054054,0.631578947368421,0.631578947368421,0.0532581453634085,0.324324324324324,"star",0.135135135135135,"star",NA,NA,NA,NA,NA,NA,NA,NA,NA,NA
NA,"stimulus-image-roundslider-response-dynamic",6,124066,"0.0-6.0","p125392","A3BVF2FDVGPSDC","R_1H6LzethwUFdUBk","37M28K1J0QE9T1Y3GYX1871S05YJAW","3MIVREZQVHZT4HD8XDPXA2LJR81QK2",2020-07-13 19:13:31,2,1,NA,19900.7300000012,225,254,"images/VCS_230.png","undelayed",1,5,5,"response",331,230,61,90,"VCS_230.png","VCS_61.png",NA,-5,-5,-193,5,"n","VCS_230.png",37,1.43243243243243,0.452830188679245,0.452830188679245,0.148040638606676,0.459459459459459,"pentagon",0.324324324324324,"pentagon",NA,NA,NA,NA,NA,NA,NA,NA,NA,NA
NA,"stimulus-image-roundslider-response-dynamic",7,152202,"0.0-7.0","p125392","A3BVF2FDVGPSDC","R_1H6LzethwUFdUBk","37M28K1J0QE9T1Y3GYX1871S05YJAW","3MIVREZQVHZT4HD8XDPXA2LJR81QK2",2020-07-13 19:13:31,2,1,NA,28126.0800000018,121,192,"images/VCS_110.png","undelayed",1,6,6,"response",289,110,19,90,"VCS_110.png","VCS_19.png",NA,11,11,-173,11,"n","VCS_110.png",37,1.51351351351351,0.660714285714286,0.660714285714286,0.0279220779220779,0.162162162162162,"head,rabbit",0.108108108108108,"rabbit.head",NA,NA,NA,NA,NA,NA,NA,NA,NA,NA
NA,"stimulus-image-roundslider-response-dynamic",13,189651,"0.0-13.0","p125392","A3BVF2FDVGPSDC","R_1H6LzethwUFdUBk","37M28K1J0QE9T1Y3GYX1871S05YJAW","3MIVREZQVHZT4HD8XDPXA2LJR81QK2",2020-07-13 19:13:31,2,1,NA,19538.779999999,263,46,"images/blank_canvas.png","delayed",1,1,1,"response",217,50,307,90,"VCS_50.png","VCS_307.png",NA,213,-147,261,147,"n","VCS_50.png",37,1.64864864864865,0.655737704918033,0.622950819672131,0.0224043715846995,0.135135135135135,"splat",0.135135135135135,"splat",NA,NA,NA,NA,NA,NA,NA,NA,NA,NA
NA,"stimulus-image-roundslider-response-dynamic",18,203819,"0.0-18.0","p125392","A3BVF2FDVGPSDC","R_1H6LzethwUFdUBk","37M28K1J0QE9T1Y3GYX1871S05YJAW","3MIVREZQVHZT4HD8XDPXA2LJR81QK2",2020-07-13 19:13:31,2,1,NA,5340.43499999825,87,14,"images/blank_canvas.png","delayed",1,2,2,"response",73,80,163,90,"VCS_80.png","VCS_163.png",NA,7,7,149,7,"n","VCS_80.png",37,1.56756756756757,0.793103448275862,0.793103448275862,0.0120992135511192,0.135135135135135,"blob",0.108108108108108,"blob",NA,NA,NA,NA,NA,NA,NA,NA,NA,NA
NA,"stimulus-image-roundslider-response-dynamic",23,219963,"0.0-23.0","p125392","A3BVF2FDVGPSDC","R_1H6LzethwUFdUBk","37M28K1J0QE9T1Y3GYX1871S05YJAW","3MIVREZQVHZT4HD8XDPXA2LJR81QK2",2020-07-13 19:13:31,2,1,NA,6071.41499999852,260,79,"images/blank_canvas.png","delayed",1,3,3,"response",181,230,271,90,"VCS_230.png","VCS_271.png",NA,30,30,192,30,"n","VCS_230.png",37,1.43243243243243,0.452830188679245,0.452830188679245,0.148040638606676,0.459459459459459,"pentagon",0.324324324324324,"pentagon",NA,NA,NA,NA,NA,NA,NA,NA,NA,NA
NA,"stimulus-image-roundslider-response-dynamic",28,232603,"0.0-28.0","p125392","A3BVF2FDVGPSDC","R_1H6LzethwUFdUBk","37M28K1J0QE9T1Y3GYX1871S05YJAW","3MIVREZQVHZT4HD8XDPXA2LJR81QK2",2020-07-13 19:13:31,2,1,NA,7265.74500000064,17,118,"images/blank_canvas.png","delayed",1,4,4,"response",259,350,349,90,"VCS_350.png","VCS_349.png",NA,-333,27,231,27,"n","VCS_350.png",37,1.40540540540541,0.346153846153846,0.346153846153846,0.273001508295626,0.72972972972973,"star",0.486486486486487,"star",NA,NA,NA,NA,NA,NA,NA,NA,NA,NA
NA,"stimulus-image-roundslider-response-dynamic",33,245259,"0.0-33.0","p125392","A3BVF2FDVGPSDC","R_1H6LzethwUFdUBk","37M28K1J0QE9T1Y3GYX1871S05YJAW","3MIVREZQVHZT4HD8XDPXA2LJR81QK2",2020-07-13 19:13:31,2,1,NA,7692.35499999922,303,68,"images/blank_canvas.png","delayed",1,5,5,"response",235,290,325,90,"VCS_290.png","VCS_325.png",NA,13,13,257,13,"n","VCS_290.png",37,1.62162162162162,0.483333333333333,0.483333333333333,0.141242937853107,0.594594594594595,"star",0.243243243243243,"star",NA,NA,NA,NA,NA,NA,NA,NA,NA,NA
NA,"stimulus-image-roundslider-response-dynamic",38,256394,"0.0-38.0","p125392","A3BVF2FDVGPSDC","R_1H6LzethwUFdUBk","37M28K1J0QE9T1Y3GYX1871S05YJAW","3MIVREZQVHZT4HD8XDPXA2LJR81QK2",2020-07-13 19:13:31,2,1,NA,4741.8949999992,326,61,"images/blank_canvas.png","delayed",1,6,6,"response",265,320,355,90,"VCS_320.png","VCS_355.png",NA,6,6,294,6,"n","VCS_320.png",37,1.48648648648649,0.581818181818182,0.581818181818182,0.130639730639731,0.540540540540541,"star",0.297297297297297,"star",NA,NA,NA,NA,NA,NA,NA,NA,NA,NA
NA,"stimulus-image-roundslider-response-dynamic",43,278211,"0.0-43.0","p125392","A3BVF2FDVGPSDC","R_1H6LzethwUFdUBk","37M28K1J0QE9T1Y3GYX1871S05YJAW","3MIVREZQVHZT4HD8XDPXA2LJR81QK2",2020-07-13 19:13:31,2,1,NA,16016.7299999993,122,19,"images/blank_canvas.png","delayed",1,7,7,"response",103,140,193,90,"VCS_140.png","VCS_193.png",NA,-18,-18,174,18,"n","VCS_140.png",37,1.54054054054054,0.771929824561403,0.754385964912281,0.0238095238095238,0.216216216216216,"vase",0.135135135135135,"vase",NA,NA,NA,NA,NA,NA,NA,NA,NA,NA
NA,"stimulus-image-roundslider-response-dynamic",48,290826,"0.0-48.0","p125392","A3BVF2FDVGPSDC","R_1H6LzethwUFdUBk","37M28K1J0QE9T1Y3GYX1871S05YJAW","3MIVREZQVHZT4HD8XDPXA2LJR81QK2",2020-07-13 19:13:31,2,1,NA,7220.96500000043,195,104,"images/blank_canvas.png","delayed",1,8,8,"response",91,200,181,90,"VCS_200.png","VCS_181.png",NA,-5,-5,77,5,"n","VCS_200.png",37,1.45945945945946,0.759259259259259,0.759259259259259,0.0349406009783368,0.27027027027027,"pentagon",0.243243243243243,"pentagon",NA,NA,NA,NA,NA,NA,NA,NA,NA,NA
NA,"stimulus-image-roundslider-response-dynamic",53,308354,"0.0-53.0","p125392","A3BVF2FDVGPSDC","R_1H6LzethwUFdUBk","37M28K1J0QE9T1Y3GYX1871S05YJAW","3MIVREZQVHZT4HD8XDPXA2LJR81QK2",2020-07-13 19:13:31,2,1,NA,12474.975000001,150,89,"images/blank_canvas.png","delayed",1,9,9,"response",61,110,151,90,"VCS_110.png","VCS_151.png",NA,40,40,62,40,"n","VCS_110.png",37,1.51351351351351,0.660714285714286,0.660714285714286,0.0279220779220779,0.162162162162162,"head,rabbit",0.108108108108108,"rabbit.head",NA,NA,NA,NA,NA,NA,NA,NA,NA,NA
NA,"stimulus-image-roundslider-response-dynamic",58,318074,"0.0-58.0","p125392","A3BVF2FDVGPSDC","R_1H6LzethwUFdUBk","37M28K1J0QE9T1Y3GYX1871S05YJAW","3MIVREZQVHZT4HD8XDPXA2LJR81QK2",2020-07-13 19:13:31,2,1,NA,3669.49499999831,5,196,"images/blank_canvas.png","delayed",1,10,10,"response",169,20,259,90,"VCS_20.png","VCS_259.png",NA,-15,-15,63,15,"n","VCS_20.png",37,1.54054054054054,0.631578947368421,0.631578947368421,0.0532581453634085,0.324324324324324,"star",0.135135135135135,"star",NA,NA,NA,NA,NA,NA,NA,NA,NA,NA
NA,"stimulus-image-roundslider-response-dynamic",63,328371,"0.0-63.0","p125392","A3BVF2FDVGPSDC","R_1H6LzethwUFdUBk","37M28K1J0QE9T1Y3GYX1871S05YJAW","3MIVREZQVHZT4HD8XDPXA2LJR81QK2",2020-07-13 19:13:31,2,1,NA,4600.16000000178,160,3,"images/blank_canvas.png","delayed",1,11,11,"response",157,170,247,90,"VCS_170.png","VCS_247.png",NA,-10,-10,244,10,"n","VCS_170.png",37,1.67567567567568,0.709677419354839,0.709677419354839,0.0243257535695399,0.216216216216216,"vase",0.0810810810810811,"badge,vase",NA,NA,NA,NA,NA,NA,NA,NA,NA,NA
NA,"stimulus-image-roundslider-response-dynamic",68,340187,"0.0-68.0","p125392","A3BVF2FDVGPSDC","R_1H6LzethwUFdUBk","37M28K1J0QE9T1Y3GYX1871S05YJAW","3MIVREZQVHZT4HD8XDPXA2LJR81QK2",2020-07-13 19:13:31,2,1,NA,6389.1799999983,328,21,"images/blank_canvas.png","delayed",1,12,12,"response",307,260,37,90,"VCS_260.png","VCS_37.png",NA,68,68,16,68,"n","VCS_260.png",37,1.54054054054054,0.596491228070175,0.578947368421053,0.0921052631578947,0.459459459459459,"star",0.216216216216216,"star",NA,NA,NA,NA,NA,NA,NA,NA,NA,NA
NA,"stimulus-image-roundslider-response-dynamic",73,349138,"0.0-73.0","p125392","A3BVF2FDVGPSDC","R_1H6LzethwUFdUBk","37M28K1J0QE9T1Y3GYX1871S05YJAW","3MIVREZQVHZT4HD8XDPXA2LJR81QK2",2020-07-13 19:13:31,2,1,NA,3166.54999999807,14,163,"images/blank_canvas.png","delayed",2,1,13,"response",211,20,301,90,"VCS_20.png","VCS_301.png",NA,-6,-6,138,6,"n","VCS_20.png",37,1.54054054054054,0.631578947368421,0.631578947368421,0.0532581453634085,0.324324324324324,"star",0.135135135135135,"star",NA,NA,NA,NA,NA,NA,NA,NA,NA,NA
NA,"stimulus-image-roundslider-response-dynamic",78,357867,"0.0-78.0","p125392","A3BVF2FDVGPSDC","R_1H6LzethwUFdUBk","37M28K1J0QE9T1Y3GYX1871S05YJAW","3MIVREZQVHZT4HD8XDPXA2LJR81QK2",2020-07-13 19:13:31,2,1,NA,3824.91999999911,25,210,"images/blank_canvas.png","delayed",2,2,14,"response",175,50,265,90,"VCS_50.png","VCS_265.png",NA,-25,-25,55,25,"n","VCS_50.png",37,1.64864864864865,0.655737704918033,0.622950819672131,0.0224043715846995,0.135135135135135,"splat",0.135135135135135,"splat",NA,NA,NA,NA,NA,NA,NA,NA,NA,NA
NA,"stimulus-image-roundslider-response-dynamic",83,366459,"0.0-83.0","p125392","A3BVF2FDVGPSDC","R_1H6LzethwUFdUBk","37M28K1J0QE9T1Y3GYX1871S05YJAW","3MIVREZQVHZT4HD8XDPXA2LJR81QK2",2020-07-13 19:13:31,2,1,NA,4031.66000000056,305,160,"images/blank_canvas.png","delayed",2,3,15,"response",145,320,235,90,"VCS_320.png","VCS_235.png",NA,-15,-15,75,15,"n","VCS_320.png",37,1.48648648648649,0.581818181818182,0.581818181818182,0.130639730639731,0.540540540540541,"star",0.297297297297297,"star",NA,NA,NA,NA,NA,NA,NA,NA,NA,NA
NA,"stimulus-image-roundslider-response-dynamic",88,376386,"0.0-88.0","p125392","A3BVF2FDVGPSDC","R_1H6LzethwUFdUBk","37M28K1J0QE9T1Y3GYX1871S05YJAW","3MIVREZQVHZT4HD8XDPXA2LJR81QK2",2020-07-13 19:13:31,2,1,NA,4981.01500000124,305,4,"images/blank_canvas.png","delayed",2,4,16,"response",301,260,31,90,"VCS_260.png","VCS_31.png",NA,45,45,27,45,"n","VCS_260.png",37,1.54054054054054,0.596491228070175,0.578947368421053,0.0921052631578947,0.459459459459459,"star",0.216216216216216,"star",NA,NA,NA,NA,NA,NA,NA,NA,NA,NA
NA,"stimulus-image-roundslider-response-dynamic",93,386458,"0.0-93.0","p125392","A3BVF2FDVGPSDC","R_1H6LzethwUFdUBk","37M28K1J0QE9T1Y3GYX1871S05YJAW","3MIVREZQVHZT4HD8XDPXA2LJR81QK2",2020-07-13 19:13:31,2,1,NA,4926.02000000258,136,117,"images/blank_canvas.png","delayed",2,5,17,"response",19,140,109,90,"VCS_140.png","VCS_109.png",NA,-4,-4,-8,4,"n","VCS_140.png",37,1.54054054054054,0.771929824561403,0.754385964912281,0.0238095238095238,0.216216216216216,"vase",0.135135135135135,"vase",NA,NA,NA,NA,NA,NA,NA,NA,NA,NA
NA,"stimulus-image-roundslider-response-dynamic",98,396442,"0.0-98.0","p125392","A3BVF2FDVGPSDC","R_1H6LzethwUFdUBk","37M28K1J0QE9T1Y3GYX1871S05YJAW","3MIVREZQVHZT4HD8XDPXA2LJR81QK2",2020-07-13 19:13:31,2,1,NA,3913.72499999852,153,164,"images/blank_canvas.png","delayed",2,6,18,"response",349,170,79,90,"VCS_170.png","VCS_79.png",NA,-17,-17,-85,17,"n","VCS_170.png",37,1.67567567567568,0.709677419354839,0.709677419354839,0.0243257535695399,0.216216216216216,"vase",0.0810810810810811,"badge,vase",NA,NA,NA,NA,NA,NA,NA,NA,NA,NA
NA,"stimulus-image-roundslider-response-dynamic",103,411594,"0.0-103.0","p125392","A3BVF2FDVGPSDC","R_1H6LzethwUFdUBk","37M28K1J0QE9T1Y3GYX1871S05YJAW","3MIVREZQVHZT4HD8XDPXA2LJR81QK2",2020-07-13 19:13:31,2,1,NA,6449.77499999729,96,233,"images/blank_canvas.png","delayed",2,7,19,"response",223,80,313,90,"VCS_80.png","VCS_313.png",NA,16,16,80,16,"n","VCS_80.png",37,1.56756756756757,0.793103448275862,0.793103448275862,0.0120992135511192,0.135135135135135,"blob",0.108108108108108,"blob",NA,NA,NA,NA,NA,NA,NA,NA,NA,NA
NA,"stimulus-image-roundslider-response-dynamic",108,426938,"0.0-108.0","p125392","A3BVF2FDVGPSDC","R_1H6LzethwUFdUBk","37M28K1J0QE9T1Y3GYX1871S05YJAW","3MIVREZQVHZT4HD8XDPXA2LJR81QK2",2020-07-13 19:13:31,2,1,NA,7812.5749999999,15,8,"images/blank_canvas.png","delayed",2,8,20,"response",7,350,97,90,"VCS_350.png","VCS_97.png",NA,-335,25,89,25,"n","VCS_350.png",37,1.40540540540541,0.346153846153846,0.346153846153846,0.273001508295626,0.72972972972973,"star",0.486486486486487,"star",NA,NA,NA,NA,NA,NA,NA,NA,NA,NA
NA,"stimulus-image-roundslider-response-dynamic",113,438082,"0.0-113.0","p125392","A3BVF2FDVGPSDC","R_1H6LzethwUFdUBk","37M28K1J0QE9T1Y3GYX1871S05YJAW","3MIVREZQVHZT4HD8XDPXA2LJR81QK2",2020-07-13 19:13:31,2,1,NA,5990.94999999937,125,172,"images/blank_canvas.png","delayed",2,9,21,"response",313,110,43,90,"VCS_110.png","VCS_43.png",NA,15,15,-129,15,"n","VCS_110.png",37,1.51351351351351,0.660714285714286,0.660714285714286,0.0279220779220779,0.162162162162162,"head,rabbit",0.108108108108108,"rabbit.head",NA,NA,NA,NA,NA,NA,NA,NA,NA,NA
NA,"stimulus-image-roundslider-response-dynamic",118,450010,"0.0-118.0","p125392","A3BVF2FDVGPSDC","R_1H6LzethwUFdUBk","37M28K1J0QE9T1Y3GYX1871S05YJAW","3MIVREZQVHZT4HD8XDPXA2LJR81QK2",2020-07-13 19:13:31,2,1,NA,6518.58500000165,239,100,"images/blank_canvas.png","delayed",2,10,22,"response",139,230,229,90,"VCS_230.png","VCS_229.png",NA,9,9,129,9,"n","VCS_230.png",37,1.43243243243243,0.452830188679245,0.452830188679245,0.148040638606676,0.459459459459459,"pentagon",0.324324324324324,"pentagon",NA,NA,NA,NA,NA,NA,NA,NA,NA,NA
NA,"stimulus-image-roundslider-response-dynamic",123,460074,"0.0-123.0","p125392","A3BVF2FDVGPSDC","R_1H6LzethwUFdUBk","37M28K1J0QE9T1Y3GYX1871S05YJAW","3MIVREZQVHZT4HD8XDPXA2LJR81QK2",2020-07-13 19:13:31,2,1,NA,5023.78500000125,310,27,"images/blank_canvas.png","delayed",2,11,23,"response",283,290,13,90,"VCS_290.png","VCS_13.png",NA,20,20,-14,20,"n","VCS_290.png",37,1.62162162162162,0.483333333333333,0.483333333333333,0.141242937853107,0.594594594594595,"star",0.243243243243243,"star",NA,NA,NA,NA,NA,NA,NA,NA,NA,NA
NA,"stimulus-image-roundslider-response-dynamic",128,474451,"0.0-128.0","p125392","A3BVF2FDVGPSDC","R_1H6LzethwUFdUBk","37M28K1J0QE9T1Y3GYX1871S05YJAW","3MIVREZQVHZT4HD8XDPXA2LJR81QK2",2020-07-13 19:13:31,2,1,NA,7632.56999999797,195,86,"images/blank_canvas.png","delayed",2,12,24,"response",109,200,199,90,"VCS_200.png","VCS_199.png",NA,-5,-5,113,5,"n","VCS_200.png",37,1.45945945945946,0.759259259259259,0.759259259259259,0.0349406009783368,0.27027027027027,"pentagon",0.243243243243243,"pentagon",NA,NA,NA,NA,NA,NA,NA,NA,NA,NA
NA,"stimulus-image-roundslider-response-dynamic",134,489138,"0.0-134.0","p125392","A3BVF2FDVGPSDC","R_1H6LzethwUFdUBk","37M28K1J0QE9T1Y3GYX1871S05YJAW","3MIVREZQVHZT4HD8XDPXA2LJR81QK2",2020-07-13 19:13:31,2,1,NA,4725.31000000157,120,233,"images/blank_canvas.png","delayed",3,1,25,"response",247,80,337,90,"VCS_80.png","VCS_337.png",NA,40,40,104,40,"n","VCS_80.png",37,1.56756756756757,0.793103448275862,0.793103448275862,0.0120992135511192,0.135135135135135,"blob",0.108108108108108,"blob",NA,NA,NA,NA,NA,NA,NA,NA,NA,NA
NA,"stimulus-image-roundslider-response-dynamic",139,498881,"0.0-139.0","p125392","A3BVF2FDVGPSDC","R_1H6LzethwUFdUBk","37M28K1J0QE9T1Y3GYX1871S05YJAW","3MIVREZQVHZT4HD8XDPXA2LJR81QK2",2020-07-13 19:13:31,2,1,NA,4782.54499999818,174,47,"images/blank_canvas.png","delayed",3,2,26,"response",127,170,217,90,"VCS_170.png","VCS_217.png",NA,4,4,170,4,"n","VCS_170.png",37,1.67567567567568,0.709677419354839,0.709677419354839,0.0243257535695399,0.216216216216216,"vase",0.0810810810810811,"badge,vase",NA,NA,NA,NA,NA,NA,NA,NA,NA,NA
NA,"stimulus-image-roundslider-response-dynamic",144,511506,"0.0-144.0","p125392","A3BVF2FDVGPSDC","R_1H6LzethwUFdUBk","37M28K1J0QE9T1Y3GYX1871S05YJAW","3MIVREZQVHZT4HD8XDPXA2LJR81QK2",2020-07-13 19:13:31,2,1,NA,7437.91999999667,18,347,"images/blank_canvas.png","delayed",3,3,27,"response",31,350,121,90,"VCS_350.png","VCS_121.png",NA,-332,28,-226,28,"n","VCS_350.png",37,1.40540540540541,0.346153846153846,0.346153846153846,0.273001508295626,0.72972972972973,"star",0.486486486486487,"star",NA,NA,NA,NA,NA,NA,NA,NA,NA,NA
NA,"stimulus-image-roundslider-response-dynamic",149,526897,"0.0-149.0","p125392","A3BVF2FDVGPSDC","R_1H6LzethwUFdUBk","37M28K1J0QE9T1Y3GYX1871S05YJAW","3MIVREZQVHZT4HD8XDPXA2LJR81QK2",2020-07-13 19:13:31,2,1,NA,6238.31500000227,314,121,"images/blank_canvas.png","delayed",3,4,28,"response",193,320,283,90,"VCS_320.png","VCS_283.png",NA,-6,-6,162,6,"n","VCS_320.png",37,1.48648648648649,0.581818181818182,0.581818181818182,0.130639730639731,0.540540540540541,"star",0.297297297297297,"star",NA,NA,NA,NA,NA,NA,NA,NA,NA,NA
NA,"stimulus-image-roundslider-response-dynamic",154,538442,"0.0-154.0","p125392","A3BVF2FDVGPSDC","R_1H6LzethwUFdUBk","37M28K1J0QE9T1Y3GYX1871S05YJAW","3MIVREZQVHZT4HD8XDPXA2LJR81QK2",2020-07-13 19:13:31,2,1,NA,4441.17999999796,137,58,"images/blank_canvas.png","delayed",3,5,29,"response",79,110,169,90,"VCS_110.png","VCS_169.png",NA,27,27,111,27,"n","VCS_110.png",37,1.51351351351351,0.660714285714286,0.660714285714286,0.0279220779220779,0.162162162162162,"head,rabbit",0.108108108108108,"rabbit.head",NA,NA,NA,NA,NA,NA,NA,NA,NA,NA
NA,"stimulus-image-roundslider-response-dynamic",159,548785,"0.0-159.0","p125392","A3BVF2FDVGPSDC","R_1H6LzethwUFdUBk","37M28K1J0QE9T1Y3GYX1871S05YJAW","3MIVREZQVHZT4HD8XDPXA2LJR81QK2",2020-07-13 19:13:31,2,1,NA,5079.68500000064,35,10,"images/blank_canvas.png","delayed",3,6,30,"response",25,50,115,90,"VCS_50.png","VCS_115.png",NA,-15,-15,105,15,"n","VCS_50.png",37,1.64864864864865,0.655737704918033,0.622950819672131,0.0224043715846995,0.135135135135135,"splat",0.135135135135135,"splat",NA,NA,NA,NA,NA,NA,NA,NA,NA,NA
NA,"stimulus-image-roundslider-response-dynamic",164,564690,"0.0-164.0","p125392","A3BVF2FDVGPSDC","R_1H6LzethwUFdUBk","37M28K1J0QE9T1Y3GYX1871S05YJAW","3MIVREZQVHZT4HD8XDPXA2LJR81QK2",2020-07-13 19:13:31,2,1,NA,8691.13500000094,257,214,"images/blank_canvas.png","delayed",3,7,31,"response",43,260,133,90,"VCS_260.png","VCS_133.png",NA,-3,-3,-81,3,"n","VCS_260.png",37,1.54054054054054,0.596491228070175,0.578947368421053,0.0921052631578947,0.459459459459459,"star",0.216216216216216,"star",NA,NA,NA,NA,NA,NA,NA,NA,NA,NA
NA,"stimulus-image-roundslider-response-dynamic",169,576186,"0.0-169.0","p125392","A3BVF2FDVGPSDC","R_1H6LzethwUFdUBk","37M28K1J0QE9T1Y3GYX1871S05YJAW","3MIVREZQVHZT4HD8XDPXA2LJR81QK2",2020-07-13 19:13:31,2,1,NA,5392.59999999916,229,252,"images/blank_canvas.png","delayed",3,8,32,"response",337,230,67,90,"VCS_230.png","VCS_67.png",NA,-1,-1,-185,1,"n","VCS_230.png",37,1.43243243243243,0.452830188679245,0.452830188679245,0.148040638606676,0.459459459459459,"pentagon",0.324324324324324,"pentagon",NA,NA,NA,NA,NA,NA,NA,NA,NA,NA
NA,"stimulus-image-roundslider-response-dynamic",174,587771,"0.0-174.0","p125392","A3BVF2FDVGPSDC","R_1H6LzethwUFdUBk","37M28K1J0QE9T1Y3GYX1871S05YJAW","3MIVREZQVHZT4HD8XDPXA2LJR81QK2",2020-07-13 19:13:31,2,1,NA,6580.54500000074,17,262,"images/blank_canvas.png","delayed",3,9,33,"response",115,20,205,90,"VCS_20.png","VCS_205.png",NA,-3,-3,-57,3,"n","VCS_20.png",37,1.54054054054054,0.631578947368421,0.631578947368421,0.0532581453634085,0.324324324324324,"star",0.135135135135135,"star",NA,NA,NA,NA,NA,NA,NA,NA,NA,NA
NA,"stimulus-image-roundslider-response-dynamic",179,600682,"0.0-179.0","p125392","A3BVF2FDVGPSDC","R_1H6LzethwUFdUBk","37M28K1J0QE9T1Y3GYX1871S05YJAW","3MIVREZQVHZT4HD8XDPXA2LJR81QK2",2020-07-13 19:13:31,2,1,NA,3828.29499999934,283,348,"images/blank_canvas.png","delayed",3,10,34,"response",295,290,25,90,"VCS_290.png","VCS_25.png",NA,-7,-7,-323,7,"n","VCS_290.png",37,1.62162162162162,0.483333333333333,0.483333333333333,0.141242937853107,0.594594594594595,"star",0.243243243243243,"star",NA,NA,NA,NA,NA,NA,NA,NA,NA,NA
NA,"stimulus-image-roundslider-response-dynamic",184,612058,"0.0-184.0","p125392","A3BVF2FDVGPSDC","R_1H6LzethwUFdUBk","37M28K1J0QE9T1Y3GYX1871S05YJAW","3MIVREZQVHZT4HD8XDPXA2LJR81QK2",2020-07-13 19:13:31,2,1,NA,5824.3050000018,116,157,"images/blank_canvas.png","delayed",3,11,35,"response",319,140,49,90,"VCS_140.png","VCS_49.png",NA,-24,-24,-108,24,"n","VCS_140.png",37,1.54054054054054,0.771929824561403,0.754385964912281,0.0238095238095238,0.216216216216216,"vase",0.135135135135135,"vase",NA,NA,NA,NA,NA,NA,NA,NA,NA,NA
NA,"stimulus-image-roundslider-response-dynamic",189,622386,"0.0-189.0","p125392","A3BVF2FDVGPSDC","R_1H6LzethwUFdUBk","37M28K1J0QE9T1Y3GYX1871S05YJAW","3MIVREZQVHZT4HD8XDPXA2LJR81QK2",2020-07-13 19:13:31,2,1,NA,5253.35500000068,250,9,"images/blank_canvas.png","delayed",3,12,36,"response",241,200,331,90,"VCS_200.png","VCS_331.png",NA,50,50,322,50,"n","VCS_200.png",37,1.45945945945946,0.759259259259259,0.759259259259259,0.0349406009783368,0.27027027027027,"pentagon",0.243243243243243,"pentagon",NA,NA,NA,NA,NA,NA,NA,NA,NA,NA
NA,"stimulus-image-roundslider-response-dynamic",194,631858,"0.0-194.0","p125392","A3BVF2FDVGPSDC","R_1H6LzethwUFdUBk","37M28K1J0QE9T1Y3GYX1871S05YJAW","3MIVREZQVHZT4HD8XDPXA2LJR81QK2",2020-07-13 19:13:31,2,1,NA,3262.21499999892,307,30,"images/blank_canvas.png","delayed",4,1,37,"response",277,290,7,90,"VCS_290.png","VCS_7.png",NA,17,17,-23,17,"n","VCS_290.png",37,1.62162162162162,0.483333333333333,0.483333333333333,0.141242937853107,0.594594594594595,"star",0.243243243243243,"star",NA,NA,NA,NA,NA,NA,NA,NA,NA,NA
NA,"stimulus-image-roundslider-response-dynamic",199,645242,"0.0-199.0","p125392","A3BVF2FDVGPSDC","R_1H6LzethwUFdUBk","37M28K1J0QE9T1Y3GYX1871S05YJAW","3MIVREZQVHZT4HD8XDPXA2LJR81QK2",2020-07-13 19:13:31,2,1,NA,8516.12500000186,134,295,"images/blank_canvas.png","delayed",4,2,38,"response",199,140,289,90,"VCS_140.png","VCS_289.png",NA,-6,-6,-6,6,"n","VCS_140.png",37,1.54054054054054,0.771929824561403,0.754385964912281,0.0238095238095238,0.216216216216216,"vase",0.135135135135135,"vase",NA,NA,NA,NA,NA,NA,NA,NA,NA,NA
NA,"stimulus-image-roundslider-response-dynamic",204,658042,"0.0-204.0","p125392","A3BVF2FDVGPSDC","R_1H6LzethwUFdUBk","37M28K1J0QE9T1Y3GYX1871S05YJAW","3MIVREZQVHZT4HD8XDPXA2LJR81QK2",2020-07-13 19:13:31,2,1,NA,5417.21500000125,341,220,"images/blank_canvas.png","delayed",4,3,39,"response",121,350,211,90,"VCS_350.png","VCS_211.png",NA,-9,-9,-9,9,"n","VCS_350.png",37,1.40540540540541,0.346153846153846,0.346153846153846,0.273001508295626,0.72972972972973,"star",0.486486486486487,"star",NA,NA,NA,NA,NA,NA,NA,NA,NA,NA
NA,"stimulus-image-roundslider-response-dynamic",209,669074,"0.0-209.0","p125392","A3BVF2FDVGPSDC","R_1H6LzethwUFdUBk","37M28K1J0QE9T1Y3GYX1871S05YJAW","3MIVREZQVHZT4HD8XDPXA2LJR81QK2",2020-07-13 19:13:31,2,1,NA,4631.61499999836,76,21,"images/blank_canvas.png","delayed",4,4,40,"response",55,80,145,90,"VCS_80.png","VCS_145.png",NA,-4,-4,124,4,"n","VCS_80.png",37,1.56756756756757,0.793103448275862,0.793103448275862,0.0120992135511192,0.135135135135135,"blob",0.108108108108108,"blob",NA,NA,NA,NA,NA,NA,NA,NA,NA,NA
NA,"stimulus-image-roundslider-response-dynamic",214,681082,"0.0-214.0","p125392","A3BVF2FDVGPSDC","R_1H6LzethwUFdUBk","37M28K1J0QE9T1Y3GYX1871S05YJAW","3MIVREZQVHZT4HD8XDPXA2LJR81QK2",2020-07-13 19:13:31,2,1,NA,5876.43499999843,232,27,"images/blank_canvas.png","delayed",4,5,41,"response",205,200,295,90,"VCS_200.png","VCS_295.png",NA,32,32,268,32,"n","VCS_200.png",37,1.45945945945946,0.759259259259259,0.759259259259259,0.0349406009783368,0.27027027027027,"pentagon",0.243243243243243,"pentagon",NA,NA,NA,NA,NA,NA,NA,NA,NA,NA
NA,"stimulus-image-roundslider-response-dynamic",219,691219,"0.0-219.0","p125392","A3BVF2FDVGPSDC","R_1H6LzethwUFdUBk","37M28K1J0QE9T1Y3GYX1871S05YJAW","3MIVREZQVHZT4HD8XDPXA2LJR81QK2",2020-07-13 19:13:31,2,1,NA,4854.88999999873,32,67,"images/blank_canvas.png","delayed",4,6,42,"response",325,20,55,90,"VCS_20.png","VCS_55.png",NA,12,12,-12,12,"n","VCS_20.png",37,1.54054054054054,0.631578947368421,0.631578947368421,0.0532581453634085,0.324324324324324,"star",0.135135135135135,"star",NA,NA,NA,NA,NA,NA,NA,NA,NA,NA
NA,"stimulus-image-roundslider-response-dynamic",224,704003,"0.0-224.0","p125392","A3BVF2FDVGPSDC","R_1H6LzethwUFdUBk","37M28K1J0QE9T1Y3GYX1871S05YJAW","3MIVREZQVHZT4HD8XDPXA2LJR81QK2",2020-07-13 19:13:31,2,1,NA,6530.1700000019,248,337,"images/blank_canvas.png","delayed",4,7,43,"response",271,260,1,90,"VCS_260.png","VCS_1.png",NA,-12,-12,-336,12,"n","VCS_260.png",37,1.54054054054054,0.596491228070175,0.578947368421053,0.0921052631578947,0.459459459459459,"star",0.216216216216216,"star",NA,NA,NA,NA,NA,NA,NA,NA,NA,NA
NA,"stimulus-image-roundslider-response-dynamic",229,715107,"0.0-229.0","p125392","A3BVF2FDVGPSDC","R_1H6LzethwUFdUBk","37M28K1J0QE9T1Y3GYX1871S05YJAW","3MIVREZQVHZT4HD8XDPXA2LJR81QK2",2020-07-13 19:13:31,2,1,NA,5939.13500000059,173,88,"images/blank_canvas.png","delayed",4,8,44,"response",85,110,175,90,"VCS_110.png","VCS_175.png",NA,63,63,87,63,"n","VCS_110.png",37,1.51351351351351,0.660714285714286,0.660714285714286,0.0279220779220779,0.162162162162162,"head,rabbit",0.108108108108108,"rabbit.head",NA,NA,NA,NA,NA,NA,NA,NA,NA,NA
NA,"stimulus-image-roundslider-response-dynamic",234,724834,"0.0-234.0","p125392","A3BVF2FDVGPSDC","R_1H6LzethwUFdUBk","37M28K1J0QE9T1Y3GYX1871S05YJAW","3MIVREZQVHZT4HD8XDPXA2LJR81QK2",2020-07-13 19:13:31,2,1,NA,4194.70999999973,221,34,"images/blank_canvas.png","delayed",4,9,45,"response",187,230,277,90,"VCS_230.png","VCS_277.png",NA,-9,-9,243,9,"n","VCS_230.png",37,1.43243243243243,0.452830188679245,0.452830188679245,0.148040638606676,0.459459459459459,"pentagon",0.324324324324324,"pentagon",NA,NA,NA,NA,NA,NA,NA,NA,NA,NA
NA,"stimulus-image-roundslider-response-dynamic",239,736369,"0.0-239.0","p125392","A3BVF2FDVGPSDC","R_1H6LzethwUFdUBk","37M28K1J0QE9T1Y3GYX1871S05YJAW","3MIVREZQVHZT4HD8XDPXA2LJR81QK2",2020-07-13 19:13:31,2,1,NA,5284.13,34,21,"images/blank_canvas.png","delayed",4,10,46,"response",13,50,103,90,"VCS_50.png","VCS_103.png",NA,-16,-16,82,16,"n","VCS_50.png",37,1.64864864864865,0.655737704918033,0.622950819672131,0.0224043715846995,0.135135135135135,"splat",0.135135135135135,"splat",NA,NA,NA,NA,NA,NA,NA,NA,NA,NA
NA,"stimulus-image-roundslider-response-dynamic",244,746754,"0.0-244.0","p125392","A3BVF2FDVGPSDC","R_1H6LzethwUFdUBk","37M28K1J0QE9T1Y3GYX1871S05YJAW","3MIVREZQVHZT4HD8XDPXA2LJR81QK2",2020-07-13 19:13:31,2,1,NA,4952.59500000242,83,88,"images/blank_canvas.png","delayed",4,11,47,"response",355,170,85,90,"VCS_170.png","VCS_85.png",NA,-87,-87,-3,87,"n","VCS_170.png",37,1.67567567567568,0.709677419354839,0.709677419354839,0.0243257535695399,0.216216216216216,"vase",0.0810810810810811,"badge,vase",NA,NA,NA,NA,NA,NA,NA,NA,NA,NA
NA,"stimulus-image-roundslider-response-dynamic",249,756746,"0.0-249.0","p125392","A3BVF2FDVGPSDC","R_1H6LzethwUFdUBk","37M28K1J0QE9T1Y3GYX1871S05YJAW","3MIVREZQVHZT4HD8XDPXA2LJR81QK2",2020-07-13 19:13:31,2,1,NA,3777.4150000005,315,86,"images/blank_canvas.png","delayed",4,12,48,"response",229,320,319,90,"VCS_320.png","VCS_319.png",NA,-5,-5,233,5,"n","VCS_320.png",37,1.48648648648649,0.581818181818182,0.581818181818182,0.130639730639731,0.540540540540541,"star",0.297297297297297,"star",NA,NA,NA,NA,NA,NA,NA,NA,NA,NA
NA,"stimulus-image-roundslider-response-dynamic",251,767314,"0.0-251.0","p125392","A3BVF2FDVGPSDC","R_1H6LzethwUFdUBk","37M28K1J0QE9T1Y3GYX1871S05YJAW","3MIVREZQVHZT4HD8XDPXA2LJR81QK2",2020-07-13 19:13:31,2,1,NA,8329.49500000186,81,308,"images/VCS_80.png","undelayed",1,7,7,"response",133,80,223,90,"VCS_80.png","VCS_223.png",NA,1,1,-85,1,"n","VCS_80.png",37,1.56756756756757,0.793103448275862,0.793103448275862,0.0120992135511192,0.135135135135135,"blob",0.108108108108108,"blob",NA,NA,NA,NA,NA,NA,NA,NA,NA,NA
NA,"stimulus-image-roundslider-response-dynamic",252,775177,"0.0-252.0","p125392","A3BVF2FDVGPSDC","R_1H6LzethwUFdUBk","37M28K1J0QE9T1Y3GYX1871S05YJAW","3MIVREZQVHZT4HD8XDPXA2LJR81QK2",2020-07-13 19:13:31,2,1,NA,7855.06000000169,350,97,"images/VCS_350.png","undelayed",1,8,8,"response",253,350,343,90,"VCS_350.png","VCS_343.png",NA,0,0,246,0,"n","VCS_350.png",37,1.40540540540541,0.346153846153846,0.346153846153846,0.273001508295626,0.72972972972973,"star",0.486486486486487,"star",NA,NA,NA,NA,NA,NA,NA,NA,NA,NA
NA,"stimulus-image-roundslider-response-dynamic",253,782026,"0.0-253.0","p125392","A3BVF2FDVGPSDC","R_1H6LzethwUFdUBk","37M28K1J0QE9T1Y3GYX1871S05YJAW","3MIVREZQVHZT4HD8XDPXA2LJR81QK2",2020-07-13 19:13:31,2,1,NA,6840.5849999981,265,198,"images/VCS_290.png","undelayed",1,9,9,"response",67,290,157,90,"VCS_290.png","VCS_157.png",NA,-25,-25,-41,25,"n","VCS_290.png",37,1.62162162162162,0.483333333333333,0.483333333333333,0.141242937853107,0.594594594594595,"star",0.243243243243243,"star",NA,NA,NA,NA,NA,NA,NA,NA,NA,NA
NA,"stimulus-image-roundslider-response-dynamic",254,789441,"0.0-254.0","p125392","A3BVF2FDVGPSDC","R_1H6LzethwUFdUBk","37M28K1J0QE9T1Y3GYX1871S05YJAW","3MIVREZQVHZT4HD8XDPXA2LJR81QK2",2020-07-13 19:13:31,2,1,NA,7409.23499999917,319,222,"images/VCS_320.png","undelayed",1,10,10,"response",97,320,187,90,"VCS_320.png","VCS_187.png",NA,-1,-1,-35,1,"n","VCS_320.png",37,1.48648648648649,0.581818181818182,0.581818181818182,0.130639730639731,0.540540540540541,"star",0.297297297297297,"star",NA,NA,NA,NA,NA,NA,NA,NA,NA,NA
NA,"stimulus-image-roundslider-response-dynamic",255,796729,"0.0-255.0","p125392","A3BVF2FDVGPSDC","R_1H6LzethwUFdUBk","37M28K1J0QE9T1Y3GYX1871S05YJAW","3MIVREZQVHZT4HD8XDPXA2LJR81QK2",2020-07-13 19:13:31,2,1,NA,7280.78000000096,175,24,"images/VCS_170.png","undelayed",1,11,11,"response",151,170,241,90,"VCS_170.png","VCS_241.png",NA,5,5,217,5,"n","VCS_170.png",37,1.67567567567568,0.709677419354839,0.709677419354839,0.0243257535695399,0.216216216216216,"vase",0.0810810810810811,"badge,vase",NA,NA,NA,NA,NA,NA,NA,NA,NA,NA
NA,"stimulus-image-roundslider-response-dynamic",256,807681,"0.0-256.0","p125392","A3BVF2FDVGPSDC","R_1H6LzethwUFdUBk","37M28K1J0QE9T1Y3GYX1871S05YJAW","3MIVREZQVHZT4HD8XDPXA2LJR81QK2",2020-07-13 19:13:31,2,1,NA,10942.1199999996,136,87,"images/VCS_140.png","undelayed",1,12,12,"response",49,140,139,90,"VCS_140.png","VCS_139.png",NA,-4,-4,52,4,"n","VCS_140.png",37,1.54054054054054,0.771929824561403,0.754385964912281,0.0238095238095238,0.216216216216216,"vase",0.135135135135135,"vase",NA,NA,NA,NA,NA,NA,NA,NA,NA,NA
NA,"stimulus-image-roundslider-response-dynamic",2,38043,"0.0-2.0","p138764","A198MSVO1VTAT5","R_11imT9Wf45MFIQB","3ZY8KE4ISJ4A7C5EMJ861VRRZIRQVB","3DWGDA5POF5J3ON3B2DPBAOSZVDV1X",2020-07-14 21:07:41,2,2,NA,21027.0350000355,273,253,"images/VCS_260.png","undelayed",1,1,1,"response",20,260,110,90,"VCS_260.png","VCS_110.png",NA,13,13,-143,13,"n","VCS_260.png",37,1.54054054054054,0.596491228070175,0.578947368421053,0.0921052631578947,0.459459459459459,"star",0.216216216216216,"star","VCS_110.png",37,1.51351351351351,0.660714285714286,0.660714285714286,0.0279220779220779,0.162162162162162,"head,rabbit",0.108108108108108,"rabbit.head"
NA,"stimulus-image-roundslider-response-dynamic",3,52099,"0.0-3.0","p138764","A198MSVO1VTAT5","R_11imT9Wf45MFIQB","3ZY8KE4ISJ4A7C5EMJ861VRRZIRQVB","3DWGDA5POF5J3ON3B2DPBAOSZVDV1X",2020-07-14 21:07:41,2,2,NA,14026.5249999939,163,311,"images/VCS_170.png","undelayed",1,2,2,"response",212,170,302,90,"VCS_170.png","VCS_302.png",NA,-7,-7,-9,7,"n","VCS_170.png",37,1.67567567567568,0.709677419354839,0.709677419354839,0.0243257535695399,0.216216216216216,"vase",0.0810810810810811,"badge,vase",NA,NA,NA,NA,NA,NA,NA,NA,NA,NA
NA,"stimulus-image-roundslider-response-dynamic",4,60308,"0.0-4.0","p138764","A198MSVO1VTAT5","R_11imT9Wf45MFIQB","3ZY8KE4ISJ4A7C5EMJ861VRRZIRQVB","3DWGDA5POF5J3ON3B2DPBAOSZVDV1X",2020-07-14 21:07:41,2,2,NA,8186.13000004552,239,57,"images/VCS_230.png","undelayed",1,3,3,"response",182,230,272,90,"VCS_230.png","VCS_272.png",NA,9,9,215,9,"n","VCS_230.png",37,1.43243243243243,0.452830188679245,0.452830188679245,0.148040638606676,0.459459459459459,"pentagon",0.324324324324324,"pentagon",NA,NA,NA,NA,NA,NA,NA,NA,NA,NA
NA,"stimulus-image-roundslider-response-dynamic",5,70643,"0.0-5.0","p138764","A198MSVO1VTAT5","R_11imT9Wf45MFIQB","3ZY8KE4ISJ4A7C5EMJ861VRRZIRQVB","3DWGDA5POF5J3ON3B2DPBAOSZVDV1X",2020-07-14 21:07:41,2,2,NA,10310.0500000874,96,280,"images/VCS_80.png","undelayed",1,4,4,"response",176,80,266,90,"VCS_80.png","VCS_266.png",NA,16,16,-14,16,"n","VCS_80.png",37,1.56756756756757,0.793103448275862,0.793103448275862,0.0120992135511192,0.135135135135135,"blob",0.108108108108108,"blob",NA,NA,NA,NA,NA,NA,NA,NA,NA,NA
NA,"stimulus-image-roundslider-response-dynamic",6,77827,"0.0-6.0","p138764","A198MSVO1VTAT5","R_11imT9Wf45MFIQB","3ZY8KE4ISJ4A7C5EMJ861VRRZIRQVB","3DWGDA5POF5J3ON3B2DPBAOSZVDV1X",2020-07-14 21:07:41,2,2,NA,7161.15499997977,22,74,"images/VCS_20.png","undelayed",1,5,5,"response",308,20,38,90,"VCS_20.png","VCS_38.png",NA,2,2,-36,2,"n","VCS_20.png",37,1.54054054054054,0.631578947368421,0.631578947368421,0.0532581453634085,0.324324324324324,"star",0.135135135135135,"star",NA,NA,NA,NA,NA,NA,NA,NA,NA,NA
NA,"stimulus-image-roundslider-response-dynamic",7,88416,"0.0-7.0","p138764","A198MSVO1VTAT5","R_11imT9Wf45MFIQB","3ZY8KE4ISJ4A7C5EMJ861VRRZIRQVB","3DWGDA5POF5J3ON3B2DPBAOSZVDV1X",2020-07-14 21:07:41,2,2,NA,10567.2849999974,358,320,"images/VCS_350.png","undelayed",1,6,6,"response",38,350,128,90,"VCS_350.png","VCS_128.png",NA,8,8,-192,8,"n","VCS_350.png",37,1.40540540540541,0.346153846153846,0.346153846153846,0.273001508295626,0.72972972972973,"star",0.486486486486487,"star",NA,NA,NA,NA,NA,NA,NA,NA,NA,NA
NA,"stimulus-image-roundslider-response-dynamic",13,115650,"0.0-13.0","p138764","A198MSVO1VTAT5","R_11imT9Wf45MFIQB","3ZY8KE4ISJ4A7C5EMJ861VRRZIRQVB","3DWGDA5POF5J3ON3B2DPBAOSZVDV1X",2020-07-14 21:07:41,2,2,NA,4780.69499996491,16,344,"images/blank_canvas.png","delayed",1,1,1,"response",32,20,122,90,"VCS_20.png","VCS_122.png",NA,-4,-4,-222,4,"n","VCS_20.png",37,1.54054054054054,0.631578947368421,0.631578947368421,0.0532581453634085,0.324324324324324,"star",0.135135135135135,"star",NA,NA,NA,NA,NA,NA,NA,NA,NA,NA
NA,"stimulus-image-roundslider-response-dynamic",18,130288,"0.0-18.0","p138764","A198MSVO1VTAT5","R_11imT9Wf45MFIQB","3ZY8KE4ISJ4A7C5EMJ861VRRZIRQVB","3DWGDA5POF5J3ON3B2DPBAOSZVDV1X",2020-07-14 21:07:41,2,2,NA,7679.64999994729,125,291,"images/blank_canvas.png","delayed",1,2,2,"response",194,80,284,90,"VCS_80.png","VCS_284.png",NA,45,45,-7,45,"n","VCS_80.png",37,1.56756756756757,0.793103448275862,0.793103448275862,0.0120992135511192,0.135135135135135,"blob",0.108108108108108,"blob",NA,NA,NA,NA,NA,NA,NA,NA,NA,NA
NA,"stimulus-image-roundslider-response-dynamic",23,141117,"0.0-23.0","p138764","A198MSVO1VTAT5","R_11imT9Wf45MFIQB","3ZY8KE4ISJ4A7C5EMJ861VRRZIRQVB","3DWGDA5POF5J3ON3B2DPBAOSZVDV1X",2020-07-14 21:07:41,2,2,NA,5215.3999999864,115,23,"images/blank_canvas.png","delayed",1,3,3,"response",92,110,182,90,"VCS_110.png","VCS_182.png",NA,5,5,159,5,"n","VCS_110.png",37,1.51351351351351,0.660714285714286,0.660714285714286,0.0279220779220779,0.162162162162162,"head,rabbit",0.108108108108108,"rabbit.head",NA,NA,NA,NA,NA,NA,NA,NA,NA,NA
NA,"stimulus-image-roundslider-response-dynamic",28,154382,"0.0-28.0","p138764","A198MSVO1VTAT5","R_11imT9Wf45MFIQB","3ZY8KE4ISJ4A7C5EMJ861VRRZIRQVB","3DWGDA5POF5J3ON3B2DPBAOSZVDV1X",2020-07-14 21:07:41,2,2,NA,7121.54500000179,319,263,"images/blank_canvas.png","delayed",1,4,4,"response",56,320,146,90,"VCS_320.png","VCS_146.png",NA,-1,-1,-117,1,"n","VCS_320.png",37,1.48648648648649,0.581818181818182,0.581818181818182,0.130639730639731,0.540540540540541,"star",0.297297297297297,"star",NA,NA,NA,NA,NA,NA,NA,NA,NA,NA
NA,"stimulus-image-roundslider-response-dynamic",33,166995,"0.0-33.0","p138764","A198MSVO1VTAT5","R_11imT9Wf45MFIQB","3ZY8KE4ISJ4A7C5EMJ861VRRZIRQVB","3DWGDA5POF5J3ON3B2DPBAOSZVDV1X",2020-07-14 21:07:41,2,2,NA,7530.76999995392,194,114,"images/blank_canvas.png","delayed",1,5,5,"response",80,200,170,90,"VCS_200.png","VCS_170.png",NA,-6,-6,56,6,"n","VCS_200.png",37,1.45945945945946,0.759259259259259,0.759259259259259,0.0349406009783368,0.27027027027027,"pentagon",0.243243243243243,"pentagon","VCS_170.png",37,1.67567567567568,0.709677419354839,0.709677419354839,0.0243257535695399,0.216216216216216,"vase",0.0810810810810811,"badge,vase"
NA,"stimulus-image-roundslider-response-dynamic",38,180251,"0.0-38.0","p138764","A198MSVO1VTAT5","R_11imT9Wf45MFIQB","3ZY8KE4ISJ4A7C5EMJ861VRRZIRQVB","3DWGDA5POF5J3ON3B2DPBAOSZVDV1X",2020-07-14 21:07:41,2,2,NA,7976.95999999996,51,271,"images/blank_canvas.png","delayed",1,6,6,"response",140,50,230,90,"VCS_50.png","VCS_230.png",NA,1,1,-41,1,"n","VCS_50.png",37,1.64864864864865,0.655737704918033,0.622950819672131,0.0224043715846995,0.135135135135135,"splat",0.135135135135135,"splat","VCS_230.png",37,1.43243243243243,0.452830188679245,0.452830188679245,0.148040638606676,0.459459459459459,"pentagon",0.324324324324324,"pentagon"
NA,"stimulus-image-roundslider-response-dynamic",43,191658,"0.0-43.0","p138764","A198MSVO1VTAT5","R_11imT9Wf45MFIQB","3ZY8KE4ISJ4A7C5EMJ861VRRZIRQVB","3DWGDA5POF5J3ON3B2DPBAOSZVDV1X",2020-07-14 21:07:41,2,2,NA,6530.80000006594,293,333,"images/blank_canvas.png","delayed",1,7,7,"response",320,260,50,90,"VCS_260.png","VCS_50.png",NA,33,33,-283,33,"n","VCS_260.png",37,1.54054054054054,0.596491228070175,0.578947368421053,0.0921052631578947,0.459459459459459,"star",0.216216216216216,"star","VCS_50.png",37,1.64864864864865,0.655737704918033,0.622950819672131,0.0224043715846995,0.135135135135135,"splat",0.135135135135135,"splat"
NA,"stimulus-image-roundslider-response-dynamic",48,227543,"0.0-48.0","p138764","A198MSVO1VTAT5","R_11imT9Wf45MFIQB","3ZY8KE4ISJ4A7C5EMJ861VRRZIRQVB","3DWGDA5POF5J3ON3B2DPBAOSZVDV1X",2020-07-14 21:07:41,2,2,NA,3030.21500003524,297,325,"images/blank_canvas.png","delayed",1,8,8,"response",332,290,62,90,"VCS_290.png","VCS_62.png",NA,7,7,-263,7,"n","VCS_290.png",37,1.62162162162162,0.483333333333333,0.483333333333333,0.141242937853107,0.594594594594595,"star",0.243243243243243,"star",NA,NA,NA,NA,NA,NA,NA,NA,NA,NA
NA,"stimulus-image-roundslider-response-dynamic",53,237173,"0.0-53.0","p138764","A198MSVO1VTAT5","R_11imT9Wf45MFIQB","3ZY8KE4ISJ4A7C5EMJ861VRRZIRQVB","3DWGDA5POF5J3ON3B2DPBAOSZVDV1X",2020-07-14 21:07:41,2,2,NA,4598.28000003472,155,21,"images/blank_canvas.png","delayed",1,9,9,"response",134,140,224,90,"VCS_140.png","VCS_224.png",NA,15,15,203,15,"n","VCS_140.png",37,1.54054054054054,0.771929824561403,0.754385964912281,0.0238095238095238,0.216216216216216,"vase",0.135135135135135,"vase",NA,NA,NA,NA,NA,NA,NA,NA,NA,NA
NA,"stimulus-image-roundslider-response-dynamic",58,245325,"0.0-58.0","p138764","A198MSVO1VTAT5","R_11imT9Wf45MFIQB","3ZY8KE4ISJ4A7C5EMJ861VRRZIRQVB","3DWGDA5POF5J3ON3B2DPBAOSZVDV1X",2020-07-14 21:07:41,2,2,NA,3171.17999994662,231,61,"images/blank_canvas.png","delayed",1,10,10,"response",170,230,260,90,"VCS_230.png","VCS_260.png",NA,1,1,199,1,"n","VCS_230.png",37,1.43243243243243,0.452830188679245,0.452830188679245,0.148040638606676,0.459459459459459,"pentagon",0.324324324324324,"pentagon","VCS_260.png",37,1.54054054054054,0.596491228070175,0.578947368421053,0.0921052631578947,0.459459459459459,"star",0.216216216216216,"star"
NA,"stimulus-image-roundslider-response-dynamic",63,254405,"0.0-63.0","p138764","A198MSVO1VTAT5","R_11imT9Wf45MFIQB","3ZY8KE4ISJ4A7C5EMJ861VRRZIRQVB","3DWGDA5POF5J3ON3B2DPBAOSZVDV1X",2020-07-14 21:07:41,2,2,NA,3205.68500005174,161,147,"images/blank_canvas.png","delayed",1,11,11,"response",14,170,104,90,"VCS_170.png","VCS_104.png",NA,-9,-9,-43,9,"n","VCS_170.png",37,1.67567567567568,0.709677419354839,0.709677419354839,0.0243257535695399,0.216216216216216,"vase",0.0810810810810811,"badge,vase",NA,NA,NA,NA,NA,NA,NA,NA,NA,NA
NA,"stimulus-image-roundslider-response-dynamic",68,263575,"0.0-68.0","p138764","A198MSVO1VTAT5","R_11imT9Wf45MFIQB","3ZY8KE4ISJ4A7C5EMJ861VRRZIRQVB","3DWGDA5POF5J3ON3B2DPBAOSZVDV1X",2020-07-14 21:07:41,2,2,NA,3639.86500003375,12,268,"images/blank_canvas.png","delayed",1,12,12,"response",104,350,194,90,"VCS_350.png","VCS_194.png",NA,-338,22,-74,22,"n","VCS_350.png",37,1.40540540540541,0.346153846153846,0.346153846153846,0.273001508295626,0.72972972972973,"star",0.486486486486487,"star",NA,NA,NA,NA,NA,NA,NA,NA,NA,NA
NA,"stimulus-image-roundslider-response-dynamic",73,272504,"0.0-73.0","p138764","A198MSVO1VTAT5","R_11imT9Wf45MFIQB","3ZY8KE4ISJ4A7C5EMJ861VRRZIRQVB","3DWGDA5POF5J3ON3B2DPBAOSZVDV1X",2020-07-14 21:07:41,2,2,NA,3527.28500007652,18,214,"images/blank_canvas.png","delayed",2,1,13,"response",164,20,254,90,"VCS_20.png","VCS_254.png",NA,-2,-2,40,2,"n","VCS_20.png",37,1.54054054054054,0.631578947368421,0.631578947368421,0.0532581453634085,0.324324324324324,"star",0.135135135135135,"star",NA,NA,NA,NA,NA,NA,NA,NA,NA,NA
NA,"stimulus-image-roundslider-response-dynamic",78,283319,"0.0-78.0","p138764","A198MSVO1VTAT5","R_11imT9Wf45MFIQB","3ZY8KE4ISJ4A7C5EMJ861VRRZIRQVB","3DWGDA5POF5J3ON3B2DPBAOSZVDV1X",2020-07-14 21:07:41,2,2,NA,5822.11499998812,170,258,"images/blank_canvas.png","delayed",2,2,14,"response",272,170,2,90,"VCS_170.png","VCS_2.png",NA,0,0,-256,0,"n","VCS_170.png",37,1.67567567567568,0.709677419354839,0.709677419354839,0.0243257535695399,0.216216216216216,"vase",0.0810810810810811,"badge,vase",NA,NA,NA,NA,NA,NA,NA,NA,NA,NA
NA,"stimulus-image-roundslider-response-dynamic",83,291989,"0.0-83.0","p138764","A198MSVO1VTAT5","R_11imT9Wf45MFIQB","3ZY8KE4ISJ4A7C5EMJ861VRRZIRQVB","3DWGDA5POF5J3ON3B2DPBAOSZVDV1X",2020-07-14 21:07:41,2,2,NA,3421.89999995753,116,6,"images/blank_canvas.png","delayed",2,3,15,"response",110,80,200,90,"VCS_80.png","VCS_200.png",NA,36,36,194,36,"n","VCS_80.png",37,1.56756756756757,0.793103448275862,0.793103448275862,0.0120992135511192,0.135135135135135,"blob",0.108108108108108,"blob","VCS_200.png",37,1.45945945945946,0.759259259259259,0.759259259259259,0.0349406009783368,0.27027027027027,"pentagon",0.243243243243243,"pentagon"
NA,"stimulus-image-roundslider-response-dynamic",88,299650,"0.0-88.0","p138764","A198MSVO1VTAT5","R_11imT9Wf45MFIQB","3ZY8KE4ISJ4A7C5EMJ861VRRZIRQVB","3DWGDA5POF5J3ON3B2DPBAOSZVDV1X",2020-07-14 21:07:41,2,2,NA,2212.99000002909,290,138,"images/blank_canvas.png","delayed",2,4,16,"response",152,290,242,90,"VCS_290.png","VCS_242.png",NA,0,0,104,0,"n","VCS_290.png",37,1.62162162162162,0.483333333333333,0.483333333333333,0.141242937853107,0.594594594594595,"star",0.243243243243243,"star",NA,NA,NA,NA,NA,NA,NA,NA,NA,NA
NA,"stimulus-image-roundslider-response-dynamic",93,310840,"0.0-93.0","p138764","A198MSVO1VTAT5","R_11imT9Wf45MFIQB","3ZY8KE4ISJ4A7C5EMJ861VRRZIRQVB","3DWGDA5POF5J3ON3B2DPBAOSZVDV1X",2020-07-14 21:07:41,2,2,NA,5922.45000007097,237,1,"images/blank_canvas.png","delayed",2,5,17,"response",236,230,326,90,"VCS_230.png","VCS_326.png",NA,7,7,325,7,"n","VCS_230.png",37,1.43243243243243,0.452830188679245,0.452830188679245,0.148040638606676,0.459459459459459,"pentagon",0.324324324324324,"pentagon",NA,NA,NA,NA,NA,NA,NA,NA,NA,NA
NA,"stimulus-image-roundslider-response-dynamic",98,320219,"0.0-98.0","p138764","A198MSVO1VTAT5","R_11imT9Wf45MFIQB","3ZY8KE4ISJ4A7C5EMJ861VRRZIRQVB","3DWGDA5POF5J3ON3B2DPBAOSZVDV1X",2020-07-14 21:07:41,2,2,NA,4630.47999993432,148,164,"images/blank_canvas.png","delayed",2,6,18,"response",344,140,74,90,"VCS_140.png","VCS_74.png",NA,8,8,-90,8,"n","VCS_140.png",37,1.54054054054054,0.771929824561403,0.754385964912281,0.0238095238095238,0.216216216216216,"vase",0.135135135135135,"vase",NA,NA,NA,NA,NA,NA,NA,NA,NA,NA
NA,"stimulus-image-roundslider-response-dynamic",103,331296,"0.0-103.0","p138764","A198MSVO1VTAT5","R_11imT9Wf45MFIQB","3ZY8KE4ISJ4A7C5EMJ861VRRZIRQVB","3DWGDA5POF5J3ON3B2DPBAOSZVDV1X",2020-07-14 21:07:41,2,2,NA,6376.19500001892,101,261,"images/blank_canvas.png","delayed",2,7,19,"response",200,110,290,90,"VCS_110.png","VCS_290.png",NA,-9,-9,29,9,"n","VCS_110.png",37,1.51351351351351,0.660714285714286,0.660714285714286,0.0279220779220779,0.162162162162162,"head,rabbit",0.108108108108108,"rabbit.head","VCS_290.png",37,1.62162162162162,0.483333333333333,0.483333333333333,0.141242937853107,0.594594594594595,"star",0.243243243243243,"star"
NA,"stimulus-image-roundslider-response-dynamic",108,343861,"0.0-108.0","p138764","A198MSVO1VTAT5","R_11imT9Wf45MFIQB","3ZY8KE4ISJ4A7C5EMJ861VRRZIRQVB","3DWGDA5POF5J3ON3B2DPBAOSZVDV1X",2020-07-14 21:07:41,2,2,NA,7998.57000005431,41,159,"images/blank_canvas.png","delayed",2,8,20,"response",242,50,332,90,"VCS_50.png","VCS_332.png",NA,-9,-9,173,9,"n","VCS_50.png",37,1.64864864864865,0.655737704918033,0.622950819672131,0.0224043715846995,0.135135135135135,"splat",0.135135135135135,"splat",NA,NA,NA,NA,NA,NA,NA,NA,NA,NA
NA,"stimulus-image-roundslider-response-dynamic",113,353201,"0.0-113.0","p138764","A198MSVO1VTAT5","R_11imT9Wf45MFIQB","3ZY8KE4ISJ4A7C5EMJ861VRRZIRQVB","3DWGDA5POF5J3ON3B2DPBAOSZVDV1X",2020-07-14 21:07:41,2,2,NA,4724.44000001997,353,69,"images/blank_canvas.png","delayed",2,9,21,"response",284,350,14,90,"VCS_350.png","VCS_14.png",NA,3,3,-55,3,"n","VCS_350.png",37,1.40540540540541,0.346153846153846,0.346153846153846,0.273001508295626,0.72972972972973,"star",0.486486486486487,"star",NA,NA,NA,NA,NA,NA,NA,NA,NA,NA
NA,"stimulus-image-roundslider-response-dynamic",118,362833,"0.0-118.0","p138764","A198MSVO1VTAT5","R_11imT9Wf45MFIQB","3ZY8KE4ISJ4A7C5EMJ861VRRZIRQVB","3DWGDA5POF5J3ON3B2DPBAOSZVDV1X",2020-07-14 21:07:41,2,2,NA,4575.5900000222,311,225,"images/blank_canvas.png","delayed",2,10,22,"response",86,320,176,90,"VCS_320.png","VCS_176.png",NA,-9,-9,-49,9,"n","VCS_320.png",37,1.48648648648649,0.581818181818182,0.581818181818182,0.130639730639731,0.540540540540541,"star",0.297297297297297,"star",NA,NA,NA,NA,NA,NA,NA,NA,NA,NA
NA,"stimulus-image-roundslider-response-dynamic",123,372436,"0.0-123.0","p138764","A198MSVO1VTAT5","R_11imT9Wf45MFIQB","3ZY8KE4ISJ4A7C5EMJ861VRRZIRQVB","3DWGDA5POF5J3ON3B2DPBAOSZVDV1X",2020-07-14 21:07:41,2,2,NA,4779.19999998994,231,325,"images/blank_canvas.png","delayed",2,11,23,"response",266,200,356,90,"VCS_200.png","VCS_356.png",NA,31,31,31,31,"n","VCS_200.png",37,1.45945945945946,0.759259259259259,0.759259259259259,0.0349406009783368,0.27027027027027,"pentagon",0.243243243243243,"pentagon",NA,NA,NA,NA,NA,NA,NA,NA,NA,NA
NA,"stimulus-image-roundslider-response-dynamic",128,381256,"0.0-128.0","p138764","A198MSVO1VTAT5","R_11imT9Wf45MFIQB","3ZY8KE4ISJ4A7C5EMJ861VRRZIRQVB","3DWGDA5POF5J3ON3B2DPBAOSZVDV1X",2020-07-14 21:07:41,2,2,NA,4062.9300000146,270,328,"images/blank_canvas.png","delayed",2,12,24,"response",302,260,32,90,"VCS_260.png","VCS_32.png",NA,10,10,-296,10,"n","VCS_260.png",37,1.54054054054054,0.596491228070175,0.578947368421053,0.0921052631578947,0.459459459459459,"star",0.216216216216216,"star",NA,NA,NA,NA,NA,NA,NA,NA,NA,NA
NA,"stimulus-image-roundslider-response-dynamic",134,617699,"0.0-134.0","p138764","A198MSVO1VTAT5","R_11imT9Wf45MFIQB","3ZY8KE4ISJ4A7C5EMJ861VRRZIRQVB","3DWGDA5POF5J3ON3B2DPBAOSZVDV1X",2020-07-14 21:07:41,2,2,NA,10939.2900000094,28,62,"images/blank_canvas.png","delayed",3,1,25,"response",326,20,56,90,"VCS_20.png","VCS_56.png",NA,8,8,-6,8,"n","VCS_20.png",37,1.54054054054054,0.631578947368421,0.631578947368421,0.0532581453634085,0.324324324324324,"star",0.135135135135135,"star",NA,NA,NA,NA,NA,NA,NA,NA,NA,NA
NA,"stimulus-image-roundslider-response-dynamic",139,639554,"0.0-139.0","p138764","A198MSVO1VTAT5","R_11imT9Wf45MFIQB","3ZY8KE4ISJ4A7C5EMJ861VRRZIRQVB","3DWGDA5POF5J3ON3B2DPBAOSZVDV1X",2020-07-14 21:07:41,2,2,NA,12762.3449999373,82,212,"images/blank_canvas.png","delayed",3,2,26,"response",230,110,320,90,"VCS_110.png","VCS_320.png",NA,-28,-28,108,28,"n","VCS_110.png",37,1.51351351351351,0.660714285714286,0.660714285714286,0.0279220779220779,0.162162162162162,"head,rabbit",0.108108108108108,"rabbit.head","VCS_320.png",37,1.48648648648649,0.581818181818182,0.581818181818182,0.130639730639731,0.540540540540541,"star",0.297297297297297,"star"
NA,"stimulus-image-roundslider-response-dynamic",144,655764,"0.0-144.0","p138764","A198MSVO1VTAT5","R_11imT9Wf45MFIQB","3ZY8KE4ISJ4A7C5EMJ861VRRZIRQVB","3DWGDA5POF5J3ON3B2DPBAOSZVDV1X",2020-07-14 21:07:41,2,2,NA,6886.95000007283,293,87,"images/blank_canvas.png","delayed",3,3,27,"response",206,290,296,90,"VCS_290.png","VCS_296.png",NA,3,3,209,3,"n","VCS_290.png",37,1.62162162162162,0.483333333333333,0.483333333333333,0.141242937853107,0.594594594594595,"star",0.243243243243243,"star",NA,NA,NA,NA,NA,NA,NA,NA,NA,NA
NA,"stimulus-image-roundslider-response-dynamic",149,676587,"0.0-149.0","p138764","A198MSVO1VTAT5","R_11imT9Wf45MFIQB","3ZY8KE4ISJ4A7C5EMJ861VRRZIRQVB","3DWGDA5POF5J3ON3B2DPBAOSZVDV1X",2020-07-14 21:07:41,2,2,NA,8428.36000001989,141,133,"images/blank_canvas.png","delayed",3,4,28,"response",8,140,98,90,"VCS_140.png","VCS_98.png",NA,1,1,-35,1,"n","VCS_140.png",37,1.54054054054054,0.771929824561403,0.754385964912281,0.0238095238095238,0.216216216216216,"vase",0.135135135135135,"vase",NA,NA,NA,NA,NA,NA,NA,NA,NA,NA
NA,"stimulus-image-roundslider-response-dynamic",154,700505,"0.0-154.0","p138764","A198MSVO1VTAT5","R_11imT9Wf45MFIQB","3ZY8KE4ISJ4A7C5EMJ861VRRZIRQVB","3DWGDA5POF5J3ON3B2DPBAOSZVDV1X",2020-07-14 21:07:41,2,2,NA,15160.9750000061,236,258,"images/blank_canvas.png","delayed",3,5,29,"response",338,230,68,90,"VCS_230.png","VCS_68.png",NA,6,6,-190,6,"n","VCS_230.png",37,1.43243243243243,0.452830188679245,0.452830188679245,0.148040638606676,0.459459459459459,"pentagon",0.324324324324324,"pentagon",NA,NA,NA,NA,NA,NA,NA,NA,NA,NA
NA,"stimulus-image-roundslider-response-dynamic",159,714709,"0.0-159.0","p138764","A198MSVO1VTAT5","R_11imT9Wf45MFIQB","3ZY8KE4ISJ4A7C5EMJ861VRRZIRQVB","3DWGDA5POF5J3ON3B2DPBAOSZVDV1X",2020-07-14 21:07:41,2,2,NA,9280.72000003885,201,151,"images/blank_canvas.png","delayed",3,6,30,"response",50,200,140,90,"VCS_200.png","VCS_140.png",NA,1,1,-11,1,"n","VCS_200.png",37,1.45945945945946,0.759259259259259,0.759259259259259,0.0349406009783368,0.27027027027027,"pentagon",0.243243243243243,"pentagon","VCS_140.png",37,1.54054054054054,0.771929824561403,0.754385964912281,0.0238095238095238,0.216216216216216,"vase",0.135135135135135,"vase"
NA,"stimulus-image-roundslider-response-dynamic",164,751097,"0.0-164.0","p138764","A198MSVO1VTAT5","R_11imT9Wf45MFIQB","3ZY8KE4ISJ4A7C5EMJ861VRRZIRQVB","3DWGDA5POF5J3ON3B2DPBAOSZVDV1X",2020-07-14 21:07:41,2,2,NA,25759.4699999318,98,72,"images/blank_canvas.png","delayed",3,7,31,"response",26,80,116,90,"VCS_80.png","VCS_116.png",NA,18,18,44,18,"n","VCS_80.png",37,1.56756756756757,0.793103448275862,0.793103448275862,0.0120992135511192,0.135135135135135,"blob",0.108108108108108,"blob",NA,NA,NA,NA,NA,NA,NA,NA,NA,NA
NA,"stimulus-image-roundslider-response-dynamic",169,794423,"0.0-169.0","p138764","A198MSVO1VTAT5","R_11imT9Wf45MFIQB","3ZY8KE4ISJ4A7C5EMJ861VRRZIRQVB","3DWGDA5POF5J3ON3B2DPBAOSZVDV1X",2020-07-14 21:07:41,2,2,NA,5994.8049999075,2,288,"images/blank_canvas.png","delayed",3,8,32,"response",74,350,164,90,"VCS_350.png","VCS_164.png",NA,-348,12,-124,12,"n","VCS_350.png",37,1.40540540540541,0.346153846153846,0.346153846153846,0.273001508295626,0.72972972972973,"star",0.486486486486487,"star",NA,NA,NA,NA,NA,NA,NA,NA,NA,NA
NA,"stimulus-image-roundslider-response-dynamic",174,813499,"0.0-174.0","p138764","A198MSVO1VTAT5","R_11imT9Wf45MFIQB","3ZY8KE4ISJ4A7C5EMJ861VRRZIRQVB","3DWGDA5POF5J3ON3B2DPBAOSZVDV1X",2020-07-14 21:07:41,2,2,NA,13668.7549999915,146,144,"images/blank_canvas.png","delayed",3,9,33,"response",2,170,92,90,"VCS_170.png","VCS_92.png",NA,-24,-24,-52,24,"n","VCS_170.png",37,1.67567567567568,0.709677419354839,0.709677419354839,0.0243257535695399,0.216216216216216,"vase",0.0810810810810811,"badge,vase",NA,NA,NA,NA,NA,NA,NA,NA,NA,NA
NA,"stimulus-image-roundslider-response-dynamic",179,832048,"0.0-179.0","p138764","A198MSVO1VTAT5","R_11imT9Wf45MFIQB","3ZY8KE4ISJ4A7C5EMJ861VRRZIRQVB","3DWGDA5POF5J3ON3B2DPBAOSZVDV1X",2020-07-14 21:07:41,2,2,NA,12717.6650000038,41,285,"images/blank_canvas.png","delayed",3,10,34,"response",116,50,206,90,"VCS_50.png","VCS_206.png",NA,-9,-9,-79,9,"n","VCS_50.png",37,1.64864864864865,0.655737704918033,0.622950819672131,0.0224043715846995,0.135135135135135,"splat",0.135135135135135,"splat",NA,NA,NA,NA,NA,NA,NA,NA,NA,NA
NA,"stimulus-image-roundslider-response-dynamic",184,863306,"0.0-184.0","p138764","A198MSVO1VTAT5","R_11imT9Wf45MFIQB","3ZY8KE4ISJ4A7C5EMJ861VRRZIRQVB","3DWGDA5POF5J3ON3B2DPBAOSZVDV1X",2020-07-14 21:07:41,2,2,NA,18271.1650000419,269,141,"images/blank_canvas.png","delayed",3,11,35,"response",128,260,218,90,"VCS_260.png","VCS_218.png",NA,9,9,77,9,"n","VCS_260.png",37,1.54054054054054,0.596491228070175,0.578947368421053,0.0921052631578947,0.459459459459459,"star",0.216216216216216,"star",NA,NA,NA,NA,NA,NA,NA,NA,NA,NA
NA,"stimulus-image-roundslider-response-dynamic",189,894295,"0.0-189.0","p138764","A198MSVO1VTAT5","R_11imT9Wf45MFIQB","3ZY8KE4ISJ4A7C5EMJ861VRRZIRQVB","3DWGDA5POF5J3ON3B2DPBAOSZVDV1X",2020-07-14 21:07:41,2,2,NA,25492.8450000007,307,239,"images/blank_canvas.png","delayed",3,12,36,"response",68,320,158,90,"VCS_320.png","VCS_158.png",NA,-13,-13,-81,13,"n","VCS_320.png",37,1.48648648648649,0.581818181818182,0.581818181818182,0.130639730639731,0.540540540540541,"star",0.297297297297297,"star",NA,NA,NA,NA,NA,NA,NA,NA,NA,NA
NA,"stimulus-image-roundslider-response-dynamic",194,927197,"0.0-194.0","p138764","A198MSVO1VTAT5","R_11imT9Wf45MFIQB","3ZY8KE4ISJ4A7C5EMJ861VRRZIRQVB","3DWGDA5POF5J3ON3B2DPBAOSZVDV1X",2020-07-14 21:07:41,2,2,NA,28242.7700000117,249,295,"images/blank_canvas.png","delayed",4,1,37,"response",314,290,44,90,"VCS_290.png","VCS_44.png",NA,-41,-41,-251,41,"n","VCS_290.png",37,1.62162162162162,0.483333333333333,0.483333333333333,0.141242937853107,0.594594594594595,"star",0.243243243243243,"star",NA,NA,NA,NA,NA,NA,NA,NA,NA,NA
NA,"stimulus-image-roundslider-response-dynamic",199,939993,"0.0-199.0","p138764","A198MSVO1VTAT5","R_11imT9Wf45MFIQB","3ZY8KE4ISJ4A7C5EMJ861VRRZIRQVB","3DWGDA5POF5J3ON3B2DPBAOSZVDV1X",2020-07-14 21:07:41,2,2,NA,7607.07000002731,18,232,"images/blank_canvas.png","delayed",4,2,38,"response",146,20,236,90,"VCS_20.png","VCS_236.png",NA,-2,-2,4,2,"n","VCS_20.png",37,1.54054054054054,0.631578947368421,0.631578947368421,0.0532581453634085,0.324324324324324,"star",0.135135135135135,"star",NA,NA,NA,NA,NA,NA,NA,NA,NA,NA
NA,"stimulus-image-roundslider-response-dynamic",204,1025403,"0.0-204.0","p138764","A198MSVO1VTAT5","R_11imT9Wf45MFIQB","3ZY8KE4ISJ4A7C5EMJ861VRRZIRQVB","3DWGDA5POF5J3ON3B2DPBAOSZVDV1X",2020-07-14 21:07:41,2,2,NA,4549.59499998949,31,137,"images/blank_canvas.png","delayed",4,3,39,"response",254,200,344,90,"VCS_200.png","VCS_344.png",NA,-169,-169,207,169,"n","VCS_200.png",37,1.45945945945946,0.759259259259259,0.759259259259259,0.0349406009783368,0.27027027027027,"pentagon",0.243243243243243,"pentagon",NA,NA,NA,NA,NA,NA,NA,NA,NA,NA
NA,"stimulus-image-roundslider-response-dynamic",209,1037486,"0.0-209.0","p138764","A198MSVO1VTAT5","R_11imT9Wf45MFIQB","3ZY8KE4ISJ4A7C5EMJ861VRRZIRQVB","3DWGDA5POF5J3ON3B2DPBAOSZVDV1X",2020-07-14 21:07:41,2,2,NA,5366.35500006378,138,220,"images/blank_canvas.png","delayed",4,4,40,"response",278,110,8,90,"VCS_110.png","VCS_8.png",NA,28,28,-212,28,"n","VCS_110.png",37,1.51351351351351,0.660714285714286,0.660714285714286,0.0279220779220779,0.162162162162162,"head,rabbit",0.108108108108108,"rabbit.head",NA,NA,NA,NA,NA,NA,NA,NA,NA,NA
NA,"stimulus-image-roundslider-response-dynamic",214,1045665,"0.0-214.0","p138764","A198MSVO1VTAT5","R_11imT9Wf45MFIQB","3ZY8KE4ISJ4A7C5EMJ861VRRZIRQVB","3DWGDA5POF5J3ON3B2DPBAOSZVDV1X",2020-07-14 21:07:41,2,2,NA,2869.79500006419,358,110,"images/blank_canvas.png","delayed",4,5,41,"response",248,350,338,90,"VCS_350.png","VCS_338.png",NA,8,8,228,8,"n","VCS_350.png",37,1.40540540540541,0.346153846153846,0.346153846153846,0.273001508295626,0.72972972972973,"star",0.486486486486487,"star",NA,NA,NA,NA,NA,NA,NA,NA,NA,NA
NA,"stimulus-image-roundslider-response-dynamic",219,1055536,"0.0-219.0","p138764","A198MSVO1VTAT5","R_11imT9Wf45MFIQB","3ZY8KE4ISJ4A7C5EMJ861VRRZIRQVB","3DWGDA5POF5J3ON3B2DPBAOSZVDV1X",2020-07-14 21:07:41,2,2,NA,4941.47499999963,235,47,"images/blank_canvas.png","delayed",4,6,42,"response",188,230,278,90,"VCS_230.png","VCS_278.png",NA,5,5,231,5,"n","VCS_230.png",37,1.43243243243243,0.452830188679245,0.452830188679245,0.148040638606676,0.459459459459459,"pentagon",0.324324324324324,"pentagon",NA,NA,NA,NA,NA,NA,NA,NA,NA,NA
NA,"stimulus-image-roundslider-response-dynamic",224,1069266,"0.0-224.0","p138764","A198MSVO1VTAT5","R_11imT9Wf45MFIQB","3ZY8KE4ISJ4A7C5EMJ861VRRZIRQVB","3DWGDA5POF5J3ON3B2DPBAOSZVDV1X",2020-07-14 21:07:41,2,2,NA,8504.42500005011,140,240,"images/blank_canvas.png","delayed",4,7,43,"response",260,140,350,90,"VCS_140.png","VCS_350.png",NA,0,0,110,0,"n","VCS_140.png",37,1.54054054054054,0.771929824561403,0.754385964912281,0.0238095238095238,0.216216216216216,"vase",0.135135135135135,"vase","VCS_350.png",37,1.40540540540541,0.346153846153846,0.346153846153846,0.273001508295626,0.72972972972973,"star",0.486486486486487,"star"
NA,"stimulus-image-roundslider-response-dynamic",229,1083543,"0.0-229.0","p138764","A198MSVO1VTAT5","R_11imT9Wf45MFIQB","3ZY8KE4ISJ4A7C5EMJ861VRRZIRQVB","3DWGDA5POF5J3ON3B2DPBAOSZVDV1X",2020-07-14 21:07:41,2,2,NA,9138.16999993287,305,9,"images/blank_canvas.png","delayed",4,8,44,"response",296,320,26,90,"VCS_320.png","VCS_26.png",NA,-15,-15,17,15,"n","VCS_320.png",37,1.48648648648649,0.581818181818182,0.581818181818182,0.130639730639731,0.540540540540541,"star",0.297297297297297,"star",NA,NA,NA,NA,NA,NA,NA,NA,NA,NA
NA,"stimulus-image-roundslider-response-dynamic",234,1095024,"0.0-234.0","p138764","A198MSVO1VTAT5","R_11imT9Wf45MFIQB","3ZY8KE4ISJ4A7C5EMJ861VRRZIRQVB","3DWGDA5POF5J3ON3B2DPBAOSZVDV1X",2020-07-14 21:07:41,2,2,NA,5392.95499993023,37,239,"images/blank_canvas.png","delayed",4,9,45,"response",158,50,248,90,"VCS_50.png","VCS_248.png",NA,-13,-13,9,13,"n","VCS_50.png",37,1.64864864864865,0.655737704918033,0.622950819672131,0.0224043715846995,0.135135135135135,"splat",0.135135135135135,"splat",NA,NA,NA,NA,NA,NA,NA,NA,NA,NA
NA,"stimulus-image-roundslider-response-dynamic",239,1114349,"0.0-239.0","p138764","A198MSVO1VTAT5","R_11imT9Wf45MFIQB","3ZY8KE4ISJ4A7C5EMJ861VRRZIRQVB","3DWGDA5POF5J3ON3B2DPBAOSZVDV1X",2020-07-14 21:07:41,2,2,NA,9995.51499995869,279,235,"images/blank_canvas.png","delayed",4,10,46,"response",44,260,134,90,"VCS_260.png","VCS_134.png",NA,19,19,-101,19,"n","VCS_260.png",37,1.54054054054054,0.596491228070175,0.578947368421053,0.0921052631578947,0.459459459459459,"star",0.216216216216216,"star",NA,NA,NA,NA,NA,NA,NA,NA,NA,NA
NA,"stimulus-image-roundslider-response-dynamic",244,1129802,"0.0-244.0","p138764","A198MSVO1VTAT5","R_11imT9Wf45MFIQB","3ZY8KE4ISJ4A7C5EMJ861VRRZIRQVB","3DWGDA5POF5J3ON3B2DPBAOSZVDV1X",2020-07-14 21:07:41,2,2,NA,10699.7950000223,230,240,"images/blank_canvas.png","delayed",4,11,47,"response",350,170,80,90,"VCS_170.png","VCS_80.png",NA,60,60,-160,60,"n","VCS_170.png",37,1.67567567567568,0.709677419354839,0.709677419354839,0.0243257535695399,0.216216216216216,"vase",0.0810810810810811,"badge,vase","VCS_80.png",37,1.56756756756757,0.793103448275862,0.793103448275862,0.0120992135511192,0.135135135135135,"blob",0.108108108108108,"blob"
NA,"stimulus-image-roundslider-response-dynamic",249,1142135,"0.0-249.0","p138764","A198MSVO1VTAT5","R_11imT9Wf45MFIQB","3ZY8KE4ISJ4A7C5EMJ861VRRZIRQVB","3DWGDA5POF5J3ON3B2DPBAOSZVDV1X",2020-07-14 21:07:41,2,2,NA,5996.64500006475,94,98,"images/blank_canvas.png","delayed",4,12,48,"response",356,80,86,90,"VCS_80.png","VCS_86.png",NA,14,14,-12,14,"n","VCS_80.png",37,1.56756756756757,0.793103448275862,0.793103448275862,0.0120992135511192,0.135135135135135,"blob",0.108108108108108,"blob",NA,NA,NA,NA,NA,NA,NA,NA,NA,NA
NA,"stimulus-image-roundslider-response-dynamic",251,1158820,"0.0-251.0","p138764","A198MSVO1VTAT5","R_11imT9Wf45MFIQB","3ZY8KE4ISJ4A7C5EMJ861VRRZIRQVB","3DWGDA5POF5J3ON3B2DPBAOSZVDV1X",2020-07-14 21:07:41,2,2,NA,7030.77499999199,323,261,"images/VCS_320.png","undelayed",1,7,7,"response",62,320,152,90,"VCS_320.png","VCS_152.png",NA,3,3,-109,3,"n","VCS_320.png",37,1.48648648648649,0.581818181818182,0.581818181818182,0.130639730639731,0.540540540540541,"star",0.297297297297297,"star",NA,NA,NA,NA,NA,NA,NA,NA,NA,NA
NA,"stimulus-image-roundslider-response-dynamic",252,1167816,"0.0-252.0","p138764","A198MSVO1VTAT5","R_11imT9Wf45MFIQB","3ZY8KE4ISJ4A7C5EMJ861VRRZIRQVB","3DWGDA5POF5J3ON3B2DPBAOSZVDV1X",2020-07-14 21:07:41,2,2,NA,8966.84999996796,139,209,"images/VCS_140.png","undelayed",1,8,8,"response",290,140,20,90,"VCS_140.png","VCS_20.png",NA,-1,-1,-189,1,"n","VCS_140.png",37,1.54054054054054,0.771929824561403,0.754385964912281,0.0238095238095238,0.216216216216216,"vase",0.135135135135135,"vase","VCS_20.png",37,1.54054054054054,0.631578947368421,0.631578947368421,0.0532581453634085,0.324324324324324,"star",0.135135135135135,"star"
NA,"stimulus-image-roundslider-response-dynamic",253,1173116,"0.0-253.0","p138764","A198MSVO1VTAT5","R_11imT9Wf45MFIQB","3ZY8KE4ISJ4A7C5EMJ861VRRZIRQVB","3DWGDA5POF5J3ON3B2DPBAOSZVDV1X",2020-07-14 21:07:41,2,2,NA,5275.12500004377,53,195,"images/VCS_50.png","undelayed",1,9,9,"response",218,50,308,90,"VCS_50.png","VCS_308.png",NA,3,3,113,3,"n","VCS_50.png",37,1.64864864864865,0.655737704918033,0.622950819672131,0.0224043715846995,0.135135135135135,"splat",0.135135135135135,"splat",NA,NA,NA,NA,NA,NA,NA,NA,NA,NA
NA,"stimulus-image-roundslider-response-dynamic",254,1178427,"0.0-254.0","p138764","A198MSVO1VTAT5","R_11imT9Wf45MFIQB","3ZY8KE4ISJ4A7C5EMJ861VRRZIRQVB","3DWGDA5POF5J3ON3B2DPBAOSZVDV1X",2020-07-14 21:07:41,2,2,NA,5286.33000003174,296,174,"images/VCS_290.png","undelayed",1,10,10,"response",122,290,212,90,"VCS_290.png","VCS_212.png",NA,6,6,38,6,"n","VCS_290.png",37,1.62162162162162,0.483333333333333,0.483333333333333,0.141242937853107,0.594594594594595,"star",0.243243243243243,"star",NA,NA,NA,NA,NA,NA,NA,NA,NA,NA
NA,"stimulus-image-roundslider-response-dynamic",255,1185333,"0.0-255.0","p138764","A198MSVO1VTAT5","R_11imT9Wf45MFIQB","3ZY8KE4ISJ4A7C5EMJ861VRRZIRQVB","3DWGDA5POF5J3ON3B2DPBAOSZVDV1X",2020-07-14 21:07:41,2,2,NA,6882.24499998614,193,329,"images/VCS_200.png","undelayed",1,11,11,"response",224,200,314,90,"VCS_200.png","VCS_314.png",NA,-7,-7,-15,7,"n","VCS_200.png",37,1.45945945945946,0.759259259259259,0.759259259259259,0.0349406009783368,0.27027027027027,"pentagon",0.243243243243243,"pentagon",NA,NA,NA,NA,NA,NA,NA,NA,NA,NA
NA,"stimulus-image-roundslider-response-dynamic",256,1193772,"0.0-256.0","p138764","A198MSVO1VTAT5","R_11imT9Wf45MFIQB","3ZY8KE4ISJ4A7C5EMJ861VRRZIRQVB","3DWGDA5POF5J3ON3B2DPBAOSZVDV1X",2020-07-14 21:07:41,2,2,NA,8420.77500000596,115,17,"images/VCS_110.png","undelayed",1,12,12,"response",98,110,188,90,"VCS_110.png","VCS_188.png",NA,5,5,171,5,"n","VCS_110.png",37,1.51351351351351,0.660714285714286,0.660714285714286,0.0279220779220779,0.162162162162162,"head,rabbit",0.108108108108108,"rabbit.head",NA,NA,NA,NA,NA,NA,NA,NA,NA,NA
NA,"stimulus-image-roundslider-response-dynamic",2,117239,"0.0-2.0","p140916","A1969Q0R4Y0E3J","R_3KonmSnS4HsRXGR",NA,NA,2020-07-10 00:04:41,2,4,NA,24745.6999999995,169,9,"images/VCS_170.png","undelayed",1,1,1,"response",160,170,250,90,"VCS_170.png","VCS_250.png",NA,-1,-1,241,1,"n","VCS_170.png",37,1.67567567567568,0.709677419354839,0.709677419354839,0.0243257535695399,0.216216216216216,"vase",0.0810810810810811,"badge,vase","VCS_250.png",38,1.71052631578947,0.461538461538462,0.430769230769231,0.124038461538462,0.578947368421053,"star",0.184210526315789,"star"
NA,"stimulus-image-roundslider-response-dynamic",3,127556,"0.0-3.0","p140916","A1969Q0R4Y0E3J","R_3KonmSnS4HsRXGR",NA,NA,2020-07-10 00:04:41,2,4,NA,10303.7999999942,88,0,"images/VCS_80.png","undelayed",1,2,2,"response",88,80,178,90,"VCS_80.png","VCS_178.png",NA,8,8,178,8,"n","VCS_80.png",37,1.56756756756757,0.793103448275862,0.793103448275862,0.0120992135511192,0.135135135135135,"blob",0.108108108108108,"blob",NA,NA,NA,NA,NA,NA,NA,NA,NA,NA
NA,"stimulus-image-roundslider-response-dynamic",4,139587,"0.0-4.0","p140916","A1969Q0R4Y0E3J","R_3KonmSnS4HsRXGR",NA,NA,2020-07-10 00:04:41,2,4,NA,12017.559999993,135,305,"images/VCS_140.png","undelayed",1,3,3,"response",190,140,280,90,"VCS_140.png","VCS_280.png",NA,-5,-5,-25,5,"n","VCS_140.png",37,1.54054054054054,0.771929824561403,0.754385964912281,0.0238095238095238,0.216216216216216,"vase",0.135135135135135,"vase","VCS_280.png",38,1.55263157894737,0.423728813559322,0.406779661016949,0.147282291057861,0.578947368421053,"star",0.236842105263158,"star"
NA,"stimulus-image-roundslider-response-dynamic",5,152560,"0.0-5.0","p140916","A1969Q0R4Y0E3J","R_3KonmSnS4HsRXGR",NA,NA,2020-07-10 00:04:41,2,4,NA,12963.4799999913,320,178,"images/VCS_320.png","undelayed",1,4,4,"response",142,320,232,90,"VCS_320.png","VCS_232.png",NA,0,0,54,0,"n","VCS_320.png",37,1.48648648648649,0.581818181818182,0.581818181818182,0.130639730639731,0.540540540540541,"star",0.297297297297297,"star",NA,NA,NA,NA,NA,NA,NA,NA,NA,NA
NA,"stimulus-image-roundslider-response-dynamic",6,162780,"0.0-6.0","p140916","A1969Q0R4Y0E3J","R_3KonmSnS4HsRXGR",NA,NA,2020-07-10 00:04:41,2,4,NA,10207.1699999942,20,340,"images/VCS_20.png","undelayed",1,5,5,"response",40,20,130,90,"VCS_20.png","VCS_130.png",NA,0,0,-210,0,"n","VCS_20.png",37,1.54054054054054,0.631578947368421,0.631578947368421,0.0532581453634085,0.324324324324324,"star",0.135135135135135,"star","VCS_130.png",37,1.51351351351351,0.714285714285714,0.714285714285714,0.0168831168831169,0.135135135135135,"face",0.0540540540540541,"vest,shirt,bunny,dog.face,vase"
NA,"stimulus-image-roundslider-response-dynamic",7,180655,"0.0-7.0","p140916","A1969Q0R4Y0E3J","R_3KonmSnS4HsRXGR",NA,NA,2020-07-10 00:04:41,2,4,NA,17862.414999996,227,79,"images/VCS_230.png","undelayed",1,6,6,"response",148,230,238,90,"VCS_230.png","VCS_238.png",NA,-3,-3,159,3,"n","VCS_230.png",37,1.43243243243243,0.452830188679245,0.452830188679245,0.148040638606676,0.459459459459459,"pentagon",0.324324324324324,"pentagon",NA,NA,NA,NA,NA,NA,NA,NA,NA,NA
