"subjCode","naming_question","naming_expTimer","naming_rt","nameing_response","goodness_of_fit_rt","goodness_of_fit_expTimer","goodness_of_fit","confidence_question","trial_number","image","trial_list_num","batchFile","gender","native","age","degree","languages","comments","native.language","SurveyId","AmazonIdentifier","AssignmentId","DurationInSeconds","StartTime","CompletionTime","ApprovalStatus","AmountPaid","AmountBonused","Estimated.CloudResearch.Fee","Actual.Completion.Code","X","X.1","X.2","Feedback"
"A105ZUIAGMN8SW","Please name this image",122.564,13262,"throw dart",1100,124.678,1,"How well does this name fit this image?",10,"VCS_340.png",1,"trial_lists/trial_list_1","Female","Yes","23","Some college, no degree",NA,NA,NA,183678,"A105ZUIAGMN8SW","3LS2AMNW5FRFHSWHL7MS63XIQXWOQA",199,"11/22/2019 12:29:50 AM","11/22/2019 12:33:09 AM","Approved",0.3,0,0.04,"W8O76iTisqCQr",NA,NA,NA,NA
"A105ZUIAGMN8SW","Please name this image",90.256,5396,"triangle",1126,92.387,4,"How well does this name fit this image?",7,"triangle.png",1,"trial_lists/trial_list_1","Female","Yes","23","Some college, no degree",NA,NA,NA,183678,"A105ZUIAGMN8SW","3LS2AMNW5FRFHSWHL7MS63XIQXWOQA",199,"11/22/2019 12:29:50 AM","11/22/2019 12:33:09 AM","Approved",0.3,0,0.04,"W8O76iTisqCQr",NA,NA,NA,NA
"A105ZUIAGMN8SW","Please name this image",41.532,6934,"pooh",1625,44.165,2,"How well does this name fit this image?",2,"VCS_160.png",1,"trial_lists/trial_list_1","Female","Yes","23","Some college, no degree",NA,NA,NA,183678,"A105ZUIAGMN8SW","3LS2AMNW5FRFHSWHL7MS63XIQXWOQA",199,"11/22/2019 12:29:50 AM","11/22/2019 12:33:09 AM","Approved",0.3,0,0.04,"W8O76iTisqCQr",NA,NA,NA,NA
"A105ZUIAGMN8SW","Please name this image",98.422,6022,"amoeba",1707,101.14,2,"How well does this name fit this image?",8,"VCS_40.png",1,"trial_lists/trial_list_1","Female","Yes","23","Some college, no degree",NA,NA,NA,183678,"A105ZUIAGMN8SW","3LS2AMNW5FRFHSWHL7MS63XIQXWOQA",199,"11/22/2019 12:29:50 AM","11/22/2019 12:33:09 AM","Approved",0.3,0,0.04,"W8O76iTisqCQr",NA,NA,NA,NA
"A105ZUIAGMN8SW","Please name this image",144.056,4098,"square",1707,146.776,4,"How well does this name fit this image?",13,"square.png",1,"trial_lists/trial_list_1","Female","Yes","23","Some college, no degree",NA,NA,NA,183678,"A105ZUIAGMN8SW","3LS2AMNW5FRFHSWHL7MS63XIQXWOQA",199,"11/22/2019 12:29:50 AM","11/22/2019 12:33:09 AM","Approved",0.3,0,0.04,"W8O76iTisqCQr",NA,NA,NA,NA
"A105ZUIAGMN8SW","Please name this image",67.653,4320,"bunny",824,69.49,3,"How well does this name fit this image?",5,"VCS_130.png",1,"trial_lists/trial_list_1","Female","Yes","23","Some college, no degree",NA,NA,NA,183678,"A105ZUIAGMN8SW","3LS2AMNW5FRFHSWHL7MS63XIQXWOQA",199,"11/22/2019 12:29:50 AM","11/22/2019 12:33:09 AM","Approved",0.3,0,0.04,"W8O76iTisqCQr",NA,NA,NA,NA
"A105ZUIAGMN8SW","Please name this image",107.413,6259,"cross",867,109.291,2,"How well does this name fit this image?",9,"VCS_10.png",1,"trial_lists/trial_list_1","Female","Yes","23","Some college, no degree",NA,NA,NA,183678,"A105ZUIAGMN8SW","3LS2AMNW5FRFHSWHL7MS63XIQXWOQA",199,"11/22/2019 12:29:50 AM","11/22/2019 12:33:09 AM","Approved",0.3,0,0.04,"W8O76iTisqCQr",NA,NA,NA,NA
"A105ZUIAGMN8SW","Please name this image",61.517,8429,"shiba",797,63.322,3,"How well does this name fit this image?",4,"dog.png",1,"trial_lists/trial_list_1","Female","Yes","23","Some college, no degree",NA,NA,NA,183678,"A105ZUIAGMN8SW","3LS2AMNW5FRFHSWHL7MS63XIQXWOQA",199,"11/22/2019 12:29:50 AM","11/22/2019 12:33:09 AM","Approved",0.3,0,0.04,"W8O76iTisqCQr",NA,NA,NA,NA
"A105ZUIAGMN8SW","Please name this image",51.051,6873,"pentagon",1015,53.079,4,"How well does this name fit this image?",3,"VCS_220.png",1,"trial_lists/trial_list_1","Female","Yes","23","Some college, no degree",NA,NA,NA,183678,"A105ZUIAGMN8SW","3LS2AMNW5FRFHSWHL7MS63XIQXWOQA",199,"11/22/2019 12:29:50 AM","11/22/2019 12:33:09 AM","Approved",0.3,0,0.04,"W8O76iTisqCQr",NA,NA,NA,NA
"A105ZUIAGMN8SW","Please name this image",172.724,14414,"blob",824,174.554,1,"How well does this name fit this image?",15,"VCS_190.png",1,"trial_lists/trial_list_1","Female","Yes","23","Some college, no degree",NA,NA,NA,183678,"A105ZUIAGMN8SW","3LS2AMNW5FRFHSWHL7MS63XIQXWOQA",199,"11/22/2019 12:29:50 AM","11/22/2019 12:33:09 AM","Approved",0.3,0,0.04,"W8O76iTisqCQr",NA,NA,NA,NA
"A105ZUIAGMN8SW","Please name this image",31.462,12107,"poky chef hat",2099,34.581,3,"How well does this name fit this image?",1,"VCS_280.png",1,"trial_lists/trial_list_1","Female","Yes","23","Some college, no degree",NA,NA,NA,183678,"A105ZUIAGMN8SW","3LS2AMNW5FRFHSWHL7MS63XIQXWOQA",199,"11/22/2019 12:29:50 AM","11/22/2019 12:33:09 AM","Approved",0.3,0,0.04,"W8O76iTisqCQr",NA,NA,NA,NA
"A105ZUIAGMN8SW","Please name this image",82.652,13138,"dart",1183,84.845,1,"How well does this name fit this image?",6,"VCS_310.png",1,"trial_lists/trial_list_1","Female","Yes","23","Some college, no degree",NA,NA,NA,183678,"A105ZUIAGMN8SW","3LS2AMNW5FRFHSWHL7MS63XIQXWOQA",199,"11/22/2019 12:29:50 AM","11/22/2019 12:33:09 AM","Approved",0.3,0,0.04,"W8O76iTisqCQr",NA,NA,NA,NA
"A105ZUIAGMN8SW","Please name this image",155.293,8503,"splat",1994,158.298,1,"How well does this name fit this image?",14,"VCS_70.png",1,"trial_lists/trial_list_1","Female","Yes","23","Some college, no degree",NA,NA,NA,183678,"A105ZUIAGMN8SW","3LS2AMNW5FRFHSWHL7MS63XIQXWOQA",199,"11/22/2019 12:29:50 AM","11/22/2019 12:33:09 AM","Approved",0.3,0,0.04,"W8O76iTisqCQr",NA,NA,NA,NA
"A105ZUIAGMN8SW","Please name this image",129.719,5030,"rabbit",740,131.471,2,"How well does this name fit this image?",11,"VCS_100.png",1,"trial_lists/trial_list_1","Female","Yes","23","Some college, no degree",NA,NA,NA,183678,"A105ZUIAGMN8SW","3LS2AMNW5FRFHSWHL7MS63XIQXWOQA",199,"11/22/2019 12:29:50 AM","11/22/2019 12:33:09 AM","Approved",0.3,0,0.04,"W8O76iTisqCQr",NA,NA,NA,NA
"A105ZUIAGMN8SW","Please name this image",137.637,6153,"fat star",1299,139.947,2,"How well does this name fit this image?",12,"VCS_250.png",1,"trial_lists/trial_list_1","Female","Yes","23","Some college, no degree",NA,NA,NA,183678,"A105ZUIAGMN8SW","3LS2AMNW5FRFHSWHL7MS63XIQXWOQA",199,"11/22/2019 12:29:50 AM","11/22/2019 12:33:09 AM","Approved",0.3,0,0.04,"W8O76iTisqCQr",NA,NA,NA,NA
"A10IZOZGBH42K","Please name this image",127.1,3348,"throwing star",1762,129.871,4,"How well does this name fit this image?",14,"VCS_340.png",1,"trial_lists/trial_list_1","Male","Yes","30","Some college, no degree","none",NA,NA,183678,"A10IZOZGBH42K","32M8BPYGATNE8HR0KG4BSSXU80MIGA",157,"11/21/2019 10:49:58 PM","11/21/2019 10:52:35 PM","Approved",0.3,0,0.04,"FnhkoiTiCqTK6",NA,NA,NA,NA
"A10IZOZGBH42K","Please name this image",68.553,3599,"bear face",1926,71.486,2,"How well does this name fit this image?",7,"VCS_160.png",1,"trial_lists/trial_list_1","Male","Yes","30","Some college, no degree","none",NA,NA,183678,"A10IZOZGBH42K","32M8BPYGATNE8HR0KG4BSSXU80MIGA",157,"11/21/2019 10:49:58 PM","11/21/2019 10:52:35 PM","Approved",0.3,0,0.04,"FnhkoiTiCqTK6",NA,NA,NA,NA
"A10IZOZGBH42K","Please name this image",82.443,10952,"pokemon head",1668,85.118,2,"How well does this name fit this image?",8,"VCS_190.png",1,"trial_lists/trial_list_1","Male","Yes","30","Some college, no degree","none",NA,NA,183678,"A10IZOZGBH42K","32M8BPYGATNE8HR0KG4BSSXU80MIGA",157,"11/21/2019 10:49:58 PM","11/21/2019 10:52:35 PM","Approved",0.3,0,0.04,"FnhkoiTiCqTK6",NA,NA,NA,NA
"A10IZOZGBH42K","Please name this image",95.132,4681,"square",1050,97.188,4,"How well does this name fit this image?",10,"square.png",1,"trial_lists/trial_list_1","Male","Yes","30","Some college, no degree","none",NA,NA,183678,"A10IZOZGBH42K","32M8BPYGATNE8HR0KG4BSSXU80MIGA",157,"11/21/2019 10:49:58 PM","11/21/2019 10:52:35 PM","Approved",0.3,0,0.04,"FnhkoiTiCqTK6",NA,NA,NA,NA
"A10IZOZGBH42K","Please name this image",13.117,6215,"Metroid",2425,16.547,3,"How well does this name fit this image?",1,"VCS_40.png",1,"trial_lists/trial_list_1","Male","Yes","30","Some college, no degree","none",NA,NA,183678,"A10IZOZGBH42K","32M8BPYGATNE8HR0KG4BSSXU80MIGA",157,"11/21/2019 10:49:58 PM","11/21/2019 10:52:35 PM","Approved",0.3,0,0.04,"FnhkoiTiCqTK6",NA,NA,NA,NA
"A10IZOZGBH42K","Please name this image",110.644,6413,"pokemon head",1588,113.238,2,"How well does this name fit this image?",12,"VCS_130.png",1,"trial_lists/trial_list_1","Male","Yes","30","Some college, no degree","none",NA,NA,183678,"A10IZOZGBH42K","32M8BPYGATNE8HR0KG4BSSXU80MIGA",157,"11/21/2019 10:49:58 PM","11/21/2019 10:52:35 PM","Approved",0.3,0,0.04,"FnhkoiTiCqTK6",NA,NA,NA,NA
"A10IZOZGBH42K","Please name this image",88.213,3090,"dog",1228,90.446,4,"How well does this name fit this image?",9,"dog.png",1,"trial_lists/trial_list_1","Male","Yes","30","Some college, no degree","none",NA,NA,183678,"A10IZOZGBH42K","32M8BPYGATNE8HR0KG4BSSXU80MIGA",157,"11/21/2019 10:49:58 PM","11/21/2019 10:52:35 PM","Approved",0.3,0,0.04,"FnhkoiTiCqTK6",NA,NA,NA,NA
"A10IZOZGBH42K","Please name this image",62.685,11381,"isosceles triangle",1260,64.95,4,"How well does this name fit this image?",6,"triangle.png",1,"trial_lists/trial_list_1","Male","Yes","30","Some college, no degree","none",NA,NA,183678,"A10IZOZGBH42K","32M8BPYGATNE8HR0KG4BSSXU80MIGA",157,"11/21/2019 10:49:58 PM","11/21/2019 10:52:35 PM","Approved",0.3,0,0.04,"FnhkoiTiCqTK6",NA,NA,NA,NA
"A10IZOZGBH42K","Please name this image",29.516,6708,"starshroom",1656,32.178,2,"How well does this name fit this image?",3,"VCS_280.png",1,"trial_lists/trial_list_1","Male","Yes","30","Some college, no degree","none",NA,NA,183678,"A10IZOZGBH42K","32M8BPYGATNE8HR0KG4BSSXU80MIGA",157,"11/21/2019 10:49:58 PM","11/21/2019 10:52:35 PM","Approved",0.3,0,0.04,"FnhkoiTiCqTK6",NA,NA,NA,NA
"A10IZOZGBH42K","Please name this image",48.33,8837,"star pope hat",1965,51.299,1,"How well does this name fit this image?",5,"VCS_310.png",1,"trial_lists/trial_list_1","Male","Yes","30","Some college, no degree","none",NA,NA,183678,"A10IZOZGBH42K","32M8BPYGATNE8HR0KG4BSSXU80MIGA",157,"11/21/2019 10:49:58 PM","11/21/2019 10:52:35 PM","Approved",0.3,0,0.04,"FnhkoiTiCqTK6",NA,NA,NA,NA
"A10IZOZGBH42K","Please name this image",133.321,3445,"pokemon head",965,135.291,3,"How well does this name fit this image?",15,"VCS_100.png",1,"trial_lists/trial_list_1","Male","Yes","30","Some college, no degree","none",NA,NA,183678,"A10IZOZGBH42K","32M8BPYGATNE8HR0KG4BSSXU80MIGA",157,"11/21/2019 10:49:58 PM","11/21/2019 10:52:35 PM","Approved",0.3,0,0.04,"FnhkoiTiCqTK6",NA,NA,NA,NA
"A10IZOZGBH42K","Please name this image",121.67,8429,"round x",1072,123.747,2,"How well does this name fit this image?",13,"VCS_70.png",1,"trial_lists/trial_list_1","Male","Yes","30","Some college, no degree","none",NA,NA,183678,"A10IZOZGBH42K","32M8BPYGATNE8HR0KG4BSSXU80MIGA",157,"11/21/2019 10:49:58 PM","11/21/2019 10:52:35 PM","Approved",0.3,0,0.04,"FnhkoiTiCqTK6",NA,NA,NA,NA
"A10IZOZGBH42K","Please name this image",101.667,4474,"starshroom",1551,104.226,3,"How well does this name fit this image?",11,"VCS_250.png",1,"trial_lists/trial_list_1","Male","Yes","30","Some college, no degree","none",NA,NA,183678,"A10IZOZGBH42K","32M8BPYGATNE8HR0KG4BSSXU80MIGA",157,"11/21/2019 10:49:58 PM","11/21/2019 10:52:35 PM","Approved",0.3,0,0.04,"FnhkoiTiCqTK6",NA,NA,NA,NA
"A10IZOZGBH42K","Please name this image",36.925,4742,"shuriken",1556,39.489,3,"How well does this name fit this image?",4,"VCS_10.png",1,"trial_lists/trial_list_1","Male","Yes","30","Some college, no degree","none",NA,NA,183678,"A10IZOZGBH42K","32M8BPYGATNE8HR0KG4BSSXU80MIGA",157,"11/21/2019 10:49:58 PM","11/21/2019 10:52:35 PM","Approved",0.3,0,0.04,"FnhkoiTiCqTK6",NA,NA,NA,NA
"A10IZOZGBH42K","Please name this image",20.192,3641,"pentagon",1606,22.805,4,"How well does this name fit this image?",2,"VCS_220.png",1,"trial_lists/trial_list_1","Male","Yes","30","Some college, no degree","none",NA,NA,183678,"A10IZOZGBH42K","32M8BPYGATNE8HR0KG4BSSXU80MIGA",157,"11/21/2019 10:49:58 PM","11/21/2019 10:52:35 PM","Approved",0.3,0,0.04,"FnhkoiTiCqTK6",NA,NA,NA,NA
"A1171IQSWQS0K8","Please name this image",158.829,4881,"Pentagon",5008,164.846,2,"How well does this name fit this image?",10,"VCS_210.png",3,"trial_lists/trial_list_3","Female","Yes","41","Some college, no degree","Spanish",NA,NA,183678,"A1171IQSWQS0K8","3DUZQ9U6SMPMKSKRENXBWV6R4EBSV2",255,"11/22/2019 12:20:36 AM","11/22/2019 12:24:51 AM","Approved",0.3,0,0.04,"lJ4n5iTiNCnag",NA,NA,NA,NA
"A1171IQSWQS0K8","Please name this image",77.365,9029,"Rabbit",3910,82.282,3,"How well does this name fit this image?",4,"VCS_120.png",3,"trial_lists/trial_list_3","Female","Yes","41","Some college, no degree","Spanish",NA,NA,183678,"A1171IQSWQS0K8","3DUZQ9U6SMPMKSKRENXBWV6R4EBSV2",255,"11/22/2019 12:20:36 AM","11/22/2019 12:24:51 AM","Approved",0.3,0,0.04,"lJ4n5iTiNCnag",NA,NA,NA,NA
"A1171IQSWQS0K8","Please name this image",34.83,7785,"Star",3094,38.938,3,"How well does this name fit this image?",1,"VCS_30.png",3,"trial_lists/trial_list_3","Female","Yes","41","Some college, no degree","Spanish",NA,NA,183678,"A1171IQSWQS0K8","3DUZQ9U6SMPMKSKRENXBWV6R4EBSV2",255,"11/22/2019 12:20:36 AM","11/22/2019 12:24:51 AM","Approved",0.3,0,0.04,"lJ4n5iTiNCnag",NA,NA,NA,NA
"A1171IQSWQS0K8","Please name this image",132.792,9003,"Ninja star",1319,135.117,3,"How well does this name fit this image?",8,"VCS_330.png",3,"trial_lists/trial_list_3","Female","Yes","41","Some college, no degree","Spanish",NA,NA,183678,"A1171IQSWQS0K8","3DUZQ9U6SMPMKSKRENXBWV6R4EBSV2",255,"11/22/2019 12:20:36 AM","11/22/2019 12:24:51 AM","Approved",0.3,0,0.04,"lJ4n5iTiNCnag",NA,NA,NA,NA
"A1171IQSWQS0K8","Please name this image",110.356,19942,"Urn",1506,112.87,2,"How well does this name fit this image?",6,"VCS_150.png",3,"trial_lists/trial_list_3","Female","Yes","41","Some college, no degree","Spanish",NA,NA,183678,"A1171IQSWQS0K8","3DUZQ9U6SMPMKSKRENXBWV6R4EBSV2",255,"11/22/2019 12:20:36 AM","11/22/2019 12:24:51 AM","Approved",0.3,0,0.04,"lJ4n5iTiNCnag",NA,NA,NA,NA
"A1171IQSWQS0K8","Please name this image",64.67,10193,"Topper",2658,68.333,3,"How well does this name fit this image?",3,"VCS_300.png",3,"trial_lists/trial_list_3","Female","Yes","41","Some college, no degree","Spanish",NA,NA,183678,"A1171IQSWQS0K8","3DUZQ9U6SMPMKSKRENXBWV6R4EBSV2",255,"11/22/2019 12:20:36 AM","11/22/2019 12:24:51 AM","Approved",0.3,0,0.04,"lJ4n5iTiNCnag",NA,NA,NA,NA
"A1171IQSWQS0K8","Please name this image",182.281,5578,"Pyramid",3458,186.743,4,"How well does this name fit this image?",12,"triangle.png",3,"trial_lists/trial_list_3","Female","Yes","41","Some college, no degree","Spanish",NA,NA,183678,"A1171IQSWQS0K8","3DUZQ9U6SMPMKSKRENXBWV6R4EBSV2",255,"11/22/2019 12:20:36 AM","11/22/2019 12:24:51 AM","Approved",0.3,0,0.04,"lJ4n5iTiNCnag",NA,NA,NA,NA
"A1171IQSWQS0K8","Please name this image",224.063,17859,"Glob",2521,227.59,1,"How well does this name fit this image?",15,"VCS_60.png",3,"trial_lists/trial_list_3","Female","Yes","41","Some college, no degree","Spanish",NA,NA,183678,"A1171IQSWQS0K8","3DUZQ9U6SMPMKSKRENXBWV6R4EBSV2",255,"11/22/2019 12:20:36 AM","11/22/2019 12:24:51 AM","Approved",0.3,0,0.04,"lJ4n5iTiNCnag",NA,NA,NA,NA
"A1171IQSWQS0K8","Please name this image",50.011,11068,"Chef hat",3459,54.474,2,"How well does this name fit this image?",2,"VCS_180.png",3,"trial_lists/trial_list_3","Female","Yes","41","Some college, no degree","Spanish",NA,NA,183678,"A1171IQSWQS0K8","3DUZQ9U6SMPMKSKRENXBWV6R4EBSV2",255,"11/22/2019 12:20:36 AM","11/22/2019 12:24:51 AM","Approved",0.3,0,0.04,"lJ4n5iTiNCnag",NA,NA,NA,NA
"A1171IQSWQS0K8","Please name this image",121.468,8594,"Star",1310,123.786,2,"How well does this name fit this image?",7,"VCS_270.png",3,"trial_lists/trial_list_3","Female","Yes","41","Some college, no degree","Spanish",NA,NA,183678,"A1171IQSWQS0K8","3DUZQ9U6SMPMKSKRENXBWV6R4EBSV2",255,"11/22/2019 12:20:36 AM","11/22/2019 12:24:51 AM","Approved",0.3,0,0.04,"lJ4n5iTiNCnag",NA,NA,NA,NA
"A1171IQSWQS0K8","Please name this image",172.561,7712,"Bunny",3129,176.699,3,"How well does this name fit this image?",11,"VCS_90.png",3,"trial_lists/trial_list_3","Female","Yes","41","Some college, no degree","Spanish",NA,NA,183678,"A1171IQSWQS0K8","3DUZQ9U6SMPMKSKRENXBWV6R4EBSV2",255,"11/22/2019 12:20:36 AM","11/22/2019 12:24:51 AM","Approved",0.3,0,0.04,"lJ4n5iTiNCnag",NA,NA,NA,NA
"A1171IQSWQS0K8","Please name this image",191.104,4357,"Square",1196,193.307,4,"How well does this name fit this image?",13,"square.png",3,"trial_lists/trial_list_3","Female","Yes","41","Some college, no degree","Spanish",NA,NA,183678,"A1171IQSWQS0K8","3DUZQ9U6SMPMKSKRENXBWV6R4EBSV2",255,"11/22/2019 12:20:36 AM","11/22/2019 12:24:51 AM","Approved",0.3,0,0.04,"lJ4n5iTiNCnag",NA,NA,NA,NA
"A1171IQSWQS0K8","Please name this image",202.552,9242,"Dog",2641,206.2,3,"How well does this name fit this image?",14,"dog.png",3,"trial_lists/trial_list_3","Female","Yes","41","Some college, no degree","Spanish",NA,NA,183678,"A1171IQSWQS0K8","3DUZQ9U6SMPMKSKRENXBWV6R4EBSV2",255,"11/22/2019 12:20:36 AM","11/22/2019 12:24:51 AM","Approved",0.3,0,0.04,"lJ4n5iTiNCnag",NA,NA,NA,NA
"A1171IQSWQS0K8","Please name this image",148.418,13298,"Nonagon",4518,153.944,2,"How well does this name fit this image?",9,"VCS_240.png",3,"trial_lists/trial_list_3","Female","Yes","41","Some college, no degree","Spanish",NA,NA,183678,"A1171IQSWQS0K8","3DUZQ9U6SMPMKSKRENXBWV6R4EBSV2",255,"11/22/2019 12:20:36 AM","11/22/2019 12:24:51 AM","Approved",0.3,0,0.04,"lJ4n5iTiNCnag",NA,NA,NA,NA
"A1171IQSWQS0K8","Please name this image",88.171,5886,"Star",1229,90.41,2,"How well does this name fit this image?",5,"VCS_360.png",3,"trial_lists/trial_list_3","Female","Yes","41","Some college, no degree","Spanish",NA,NA,183678,"A1171IQSWQS0K8","3DUZQ9U6SMPMKSKRENXBWV6R4EBSV2",255,"11/22/2019 12:20:36 AM","11/22/2019 12:24:51 AM","Approved",0.3,0,0.04,"lJ4n5iTiNCnag",NA,NA,NA,NA
"A11DJHOJ5CEV4A","Please name this image",322.413,10109,"crown",4111,327.545,3,"How well does this name fit this image?",13,"VCS_260.png",2,"trial_lists/trial_list_2","Female","Yes","36","Some college, no degree","English",NA,NA,183678,"A11DJHOJ5CEV4A","32SVAV9L3FAY8NWEDD5ES0K2RO7A3N",901,"11/22/2019 12:03:57 AM","11/22/2019 12:18:58 AM","Approved",0.3,0,0.04,"T8Q2aiTipmYB5",NA,NA,NA,NA
"A11DJHOJ5CEV4A","Please name this image",101.413,30653,"police badge",2114,104.548,2,"How well does this name fit this image?",3,"VCS_200.png",2,"trial_lists/trial_list_2","Female","Yes","36","Some college, no degree","English",NA,NA,183678,"A11DJHOJ5CEV4A","32SVAV9L3FAY8NWEDD5ES0K2RO7A3N",901,"11/22/2019 12:03:57 AM","11/22/2019 12:18:58 AM","Approved",0.3,0,0.04,"T8Q2aiTipmYB5",NA,NA,NA,NA
"A11DJHOJ5CEV4A","Please name this image",34.021,14270,"4 point star",5846,40.896,2,"How well does this name fit this image?",1,"VCS_20.png",2,"trial_lists/trial_list_2","Female","Yes","36","Some college, no degree","English",NA,NA,183678,"A11DJHOJ5CEV4A","32SVAV9L3FAY8NWEDD5ES0K2RO7A3N",901,"11/22/2019 12:03:57 AM","11/22/2019 12:18:58 AM","Approved",0.3,0,0.04,"T8Q2aiTipmYB5",NA,NA,NA,NA
"A11DJHOJ5CEV4A","Please name this image",66.447,25506,"Strong dog",3259,70.726,1,"How well does this name fit this image?",2,"dog.png",2,"trial_lists/trial_list_2","Female","Yes","36","Some college, no degree","English",NA,NA,183678,"A11DJHOJ5CEV4A","32SVAV9L3FAY8NWEDD5ES0K2RO7A3N",901,"11/22/2019 12:03:57 AM","11/22/2019 12:18:58 AM","Approved",0.3,0,0.04,"T8Q2aiTipmYB5",NA,NA,NA,NA
"A11DJHOJ5CEV4A","Please name this image",306.567,18068,"bib",4697,312.28,1,"How well does this name fit this image?",12,"VCS_80.png",2,"trial_lists/trial_list_2","Female","Yes","36","Some college, no degree","English",NA,NA,183678,"A11DJHOJ5CEV4A","32SVAV9L3FAY8NWEDD5ES0K2RO7A3N",901,"11/22/2019 12:03:57 AM","11/22/2019 12:18:58 AM","Approved",0.3,0,0.04,"T8Q2aiTipmYB5",NA,NA,NA,NA
"A11DJHOJ5CEV4A","Please name this image",345.47,17892,"squared",2754,349.244,3,"How well does this name fit this image?",14,"square.png",2,"trial_lists/trial_list_2","Female","Yes","36","Some college, no degree","English",NA,NA,183678,"A11DJHOJ5CEV4A","32SVAV9L3FAY8NWEDD5ES0K2RO7A3N",901,"11/22/2019 12:03:57 AM","11/22/2019 12:18:58 AM","Approved",0.3,0,0.04,"T8Q2aiTipmYB5",NA,NA,NA,NA
"A11DJHOJ5CEV4A","Please name this image",194.59,20611,"sea diamond",2115,197.723,2,"How well does this name fit this image?",7,"VCS_350.png",2,"trial_lists/trial_list_2","Female","Yes","36","Some college, no degree","English",NA,NA,183678,"A11DJHOJ5CEV4A","32SVAV9L3FAY8NWEDD5ES0K2RO7A3N",901,"11/22/2019 12:03:57 AM","11/22/2019 12:18:58 AM","Approved",0.3,0,0.04,"T8Q2aiTipmYB5",NA,NA,NA,NA
"A11DJHOJ5CEV4A","Please name this image",124.569,20000,"bunny face",3087,128.681,2,"How well does this name fit this image?",4,"VCS_110.png",2,"trial_lists/trial_list_2","Female","Yes","36","Some college, no degree","English",NA,NA,183678,"A11DJHOJ5CEV4A","32SVAV9L3FAY8NWEDD5ES0K2RO7A3N",901,"11/22/2019 12:03:57 AM","11/22/2019 12:18:58 AM","Approved",0.3,0,0.04,"T8Q2aiTipmYB5",NA,NA,NA,NA
"A11DJHOJ5CEV4A","Please name this image",141.305,12596,"vesto",3224,145.551,3,"How well does this name fit this image?",5,"VCS_140.png",2,"trial_lists/trial_list_2","Female","Yes","36","Some college, no degree","English",NA,NA,183678,"A11DJHOJ5CEV4A","32SVAV9L3FAY8NWEDD5ES0K2RO7A3N",901,"11/22/2019 12:03:57 AM","11/22/2019 12:18:58 AM","Approved",0.3,0,0.04,"T8Q2aiTipmYB5",NA,NA,NA,NA
"A11DJHOJ5CEV4A","Please name this image",365.768,16499,"vesto",2285,369.074,2,"How well does this name fit this image?",15,"VCS_170.png",2,"trial_lists/trial_list_2","Female","Yes","36","Some college, no degree","English",NA,NA,183678,"A11DJHOJ5CEV4A","32SVAV9L3FAY8NWEDD5ES0K2RO7A3N",901,"11/22/2019 12:03:57 AM","11/22/2019 12:18:58 AM","Approved",0.3,0,0.04,"T8Q2aiTipmYB5",NA,NA,NA,NA
"A11DJHOJ5CEV4A","Please name this image",169.797,24219,"cone angle",3129,173.95,2,"How well does this name fit this image?",6,"triangle.png",2,"trial_lists/trial_list_2","Female","Yes","36","Some college, no degree","English",NA,NA,183678,"A11DJHOJ5CEV4A","32SVAV9L3FAY8NWEDD5ES0K2RO7A3N",901,"11/22/2019 12:03:57 AM","11/22/2019 12:18:58 AM","Approved",0.3,0,0.04,"T8Q2aiTipmYB5",NA,NA,NA,NA
"A11DJHOJ5CEV4A","Please name this image",248.594,31857,"spiky",1647,251.261,3,"How well does this name fit this image?",9,"VCS_320.png",2,"trial_lists/trial_list_2","Female","Yes","36","Some college, no degree","English",NA,NA,183678,"A11DJHOJ5CEV4A","32SVAV9L3FAY8NWEDD5ES0K2RO7A3N",901,"11/22/2019 12:03:57 AM","11/22/2019 12:18:58 AM","Approved",0.3,0,0.04,"T8Q2aiTipmYB5",NA,NA,NA,NA
"A11DJHOJ5CEV4A","Please name this image",285.155,10729,"toast",2297,288.471,2,"How well does this name fit this image?",11,"VCS_230.png",2,"trial_lists/trial_list_2","Female","Yes","36","Some college, no degree","English",NA,NA,183678,"A11DJHOJ5CEV4A","32SVAV9L3FAY8NWEDD5ES0K2RO7A3N",901,"11/22/2019 12:03:57 AM","11/22/2019 12:18:58 AM","Approved",0.3,0,0.04,"T8Q2aiTipmYB5",NA,NA,NA,NA
"A11DJHOJ5CEV4A","Please name this image",270.883,19589,"splash",2500,274.401,3,"How well does this name fit this image?",10,"VCS_50.png",2,"trial_lists/trial_list_2","Female","Yes","36","Some college, no degree","English",NA,NA,183678,"A11DJHOJ5CEV4A","32SVAV9L3FAY8NWEDD5ES0K2RO7A3N",901,"11/22/2019 12:03:57 AM","11/22/2019 12:18:58 AM","Approved",0.3,0,0.04,"T8Q2aiTipmYB5",NA,NA,NA,NA
"A11DJHOJ5CEV4A","Please name this image",212.306,14557,"crown",3378,216.709,3,"How well does this name fit this image?",8,"VCS_290.png",2,"trial_lists/trial_list_2","Female","Yes","36","Some college, no degree","English",NA,NA,183678,"A11DJHOJ5CEV4A","32SVAV9L3FAY8NWEDD5ES0K2RO7A3N",901,"11/22/2019 12:03:57 AM","11/22/2019 12:18:58 AM","Approved",0.3,0,0.04,"T8Q2aiTipmYB5",NA,NA,NA,NA
"A13WYNLPK8PXRO","Please name this image",415.257,18204,"drunk tombstone",2260,418.526,2,"How well does this name fit this image?",15,"VCS_190.png",1,"trial_lists/trial_list_1","Male","Yes","31","bachelors","Spanish",NA,NA,183678,"A13WYNLPK8PXRO","3ZV9H2YQQD8VF0ZHEI16APHTJ7A3WR",440,"11/22/2019 12:04:17 AM","11/22/2019 12:11:37 AM","Approved",0.3,0,0.04,"QyTrCiTiwkAlh",NA,NA,NA,NA
"A13WYNLPK8PXRO","Please name this image",313.034,12989,"gummy bear head",1586,315.63,3,"How well does this name fit this image?",9,"VCS_130.png",1,"trial_lists/trial_list_1","Male","Yes","31","bachelors","Spanish",NA,NA,183678,"A13WYNLPK8PXRO","3ZV9H2YQQD8VF0ZHEI16APHTJ7A3WR",440,"11/22/2019 12:04:17 AM","11/22/2019 12:11:37 AM","Approved",0.3,0,0.04,"QyTrCiTiwkAlh",NA,NA,NA,NA
"A13WYNLPK8PXRO","Please name this image",333.945,18309,"dog",1645,336.598,4,"How well does this name fit this image?",10,"dog.png",1,"trial_lists/trial_list_1","Male","Yes","31","bachelors","Spanish",NA,NA,183678,"A13WYNLPK8PXRO","3ZV9H2YQQD8VF0ZHEI16APHTJ7A3WR",440,"11/22/2019 12:04:17 AM","11/22/2019 12:11:37 AM","Approved",0.3,0,0.04,"QyTrCiTiwkAlh",NA,NA,NA,NA
"A13WYNLPK8PXRO","Please name this image",345.497,8892,"smooth ninja star",1932,348.437,3,"How well does this name fit this image?",11,"VCS_10.png",1,"trial_lists/trial_list_1","Male","Yes","31","bachelors","Spanish",NA,NA,183678,"A13WYNLPK8PXRO","3ZV9H2YQQD8VF0ZHEI16APHTJ7A3WR",440,"11/22/2019 12:04:17 AM","11/22/2019 12:11:37 AM","Approved",0.3,0,0.04,"QyTrCiTiwkAlh",NA,NA,NA,NA
"A13WYNLPK8PXRO","Please name this image",73.026,13212,"splat",2050,76.085,2,"How well does this name fit this image?",3,"VCS_40.png",1,"trial_lists/trial_list_1","Male","Yes","31","bachelors","Spanish",NA,NA,183678,"A13WYNLPK8PXRO","3ZV9H2YQQD8VF0ZHEI16APHTJ7A3WR",440,"11/22/2019 12:04:17 AM","11/22/2019 12:11:37 AM","Approved",0.3,0,0.04,"QyTrCiTiwkAlh",NA,NA,NA,NA
"A13WYNLPK8PXRO","Please name this image",297.866,15261,"fat star",1163,300.038,2,"How well does this name fit this image?",8,"VCS_250.png",1,"trial_lists/trial_list_1","Male","Yes","31","bachelors","Spanish",NA,NA,183678,"A13WYNLPK8PXRO","3ZV9H2YQQD8VF0ZHEI16APHTJ7A3WR",440,"11/22/2019 12:04:17 AM","11/22/2019 12:11:37 AM","Approved",0.3,0,0.04,"QyTrCiTiwkAlh",NA,NA,NA,NA
"A13WYNLPK8PXRO","Please name this image",369.578,5677,"square",1060,371.648,4,"How well does this name fit this image?",13,"square.png",1,"trial_lists/trial_list_1","Male","Yes","31","bachelors","Spanish",NA,NA,183678,"A13WYNLPK8PXRO","3ZV9H2YQQD8VF0ZHEI16APHTJ7A3WR",440,"11/22/2019 12:04:17 AM","11/22/2019 12:11:37 AM","Approved",0.3,0,0.04,"QyTrCiTiwkAlh",NA,NA,NA,NA
"A13WYNLPK8PXRO","Please name this image",241.154,145310,"triangle",3226,245.39,3,"How well does this name fit this image?",5,"triangle.png",1,"trial_lists/trial_list_1","Male","Yes","31","bachelors","Spanish",NA,NA,183678,"A13WYNLPK8PXRO","3ZV9H2YQQD8VF0ZHEI16APHTJ7A3WR",440,"11/22/2019 12:04:17 AM","11/22/2019 12:11:37 AM","Approved",0.3,0,0.04,"QyTrCiTiwkAlh",NA,NA,NA,NA
"A13WYNLPK8PXRO","Please name this image",394.913,23258,"silly putty",1123,397.045,2,"How well does this name fit this image?",14,"VCS_100.png",1,"trial_lists/trial_list_1","Male","Yes","31","bachelors","Spanish",NA,NA,183678,"A13WYNLPK8PXRO","3ZV9H2YQQD8VF0ZHEI16APHTJ7A3WR",440,"11/22/2019 12:04:17 AM","11/22/2019 12:11:37 AM","Approved",0.3,0,0.04,"QyTrCiTiwkAlh",NA,NA,NA,NA
"A13WYNLPK8PXRO","Please name this image",361.45,13006,"rounded shield",1435,363.895,4,"How well does this name fit this image?",12,"VCS_160.png",1,"trial_lists/trial_list_1","Male","Yes","31","bachelors","Spanish",NA,NA,183678,"A13WYNLPK8PXRO","3ZV9H2YQQD8VF0ZHEI16APHTJ7A3WR",440,"11/22/2019 12:04:17 AM","11/22/2019 12:11:37 AM","Approved",0.3,0,0.04,"QyTrCiTiwkAlh",NA,NA,NA,NA
"A13WYNLPK8PXRO","Please name this image",261.034,15636,"drunk pentagon",1972,264.014,4,"How well does this name fit this image?",6,"VCS_220.png",1,"trial_lists/trial_list_1","Male","Yes","31","bachelors","Spanish",NA,NA,183678,"A13WYNLPK8PXRO","3ZV9H2YQQD8VF0ZHEI16APHTJ7A3WR",440,"11/22/2019 12:04:17 AM","11/22/2019 12:11:37 AM","Approved",0.3,0,0.04,"QyTrCiTiwkAlh",NA,NA,NA,NA
"A13WYNLPK8PXRO","Please name this image",93.297,17204,"gingerbread body",1531,95.837,2,"How well does this name fit this image?",4,"VCS_70.png",1,"trial_lists/trial_list_1","Male","Yes","31","bachelors","Spanish",NA,NA,183678,"A13WYNLPK8PXRO","3ZV9H2YQQD8VF0ZHEI16APHTJ7A3WR",440,"11/22/2019 12:04:17 AM","11/22/2019 12:11:37 AM","Approved",0.3,0,0.04,"QyTrCiTiwkAlh",NA,NA,NA,NA
"A13WYNLPK8PXRO","Please name this image",57.194,20352,"starchisel",1604,59.806,3,"How well does this name fit this image?",2,"VCS_310.png",1,"trial_lists/trial_list_1","Male","Yes","31","bachelors","Spanish",NA,NA,183678,"A13WYNLPK8PXRO","3ZV9H2YQQD8VF0ZHEI16APHTJ7A3WR",440,"11/22/2019 12:04:17 AM","11/22/2019 12:11:37 AM","Approved",0.3,0,0.04,"QyTrCiTiwkAlh",NA,NA,NA,NA
"A13WYNLPK8PXRO","Please name this image",279.201,15179,"defective ninja star",2387,282.597,3,"How well does this name fit this image?",7,"VCS_340.png",1,"trial_lists/trial_list_1","Male","Yes","31","bachelors","Spanish",NA,NA,183678,"A13WYNLPK8PXRO","3ZV9H2YQQD8VF0ZHEI16APHTJ7A3WR",440,"11/22/2019 12:04:17 AM","11/22/2019 12:11:37 AM","Approved",0.3,0,0.04,"QyTrCiTiwkAlh",NA,NA,NA,NA
"A13WYNLPK8PXRO","Please name this image",32.489,18597,"starsquare",3331,36.83,3,"How well does this name fit this image?",1,"VCS_280.png",1,"trial_lists/trial_list_1","Male","Yes","31","bachelors","Spanish",NA,NA,183678,"A13WYNLPK8PXRO","3ZV9H2YQQD8VF0ZHEI16APHTJ7A3WR",440,"11/22/2019 12:04:17 AM","11/22/2019 12:11:37 AM","Approved",0.3,0,0.04,"QyTrCiTiwkAlh",NA,NA,NA,NA
"A17V85U8PXS4LJ","Please name this image",84.752,18369,"Base with two supports",3173,88.931,2,"How well does this name fit this image?",4,"VCS_80.png",2,"trial_lists/trial_list_2","Male","Yes","61","masters",NA,NA,NA,183678,"A17V85U8PXS4LJ","3IO1LGZLK9YJMIQHZHJY3CQRBRD68P",290,"11/22/2019 12:17:30 AM","11/22/2019 12:22:20 AM","Approved",0.3,0,0.04,"CZadsiTir5DgP",NA,NA,NA,NA
"A17V85U8PXS4LJ","Please name this image",61.814,6416,"Mostly dog",3558,66.377,1,"How well does this name fit this image?",3,"dog.png",2,"trial_lists/trial_list_2","Male","Yes","61","masters",NA,NA,NA,183678,"A17V85U8PXS4LJ","3IO1LGZLK9YJMIQHZHJY3CQRBRD68P",290,"11/22/2019 12:17:30 AM","11/22/2019 12:22:20 AM","Approved",0.3,0,0.04,"CZadsiTir5DgP",NA,NA,NA,NA
"A17V85U8PXS4LJ","Please name this image",141.605,12337,"star on square",1966,144.576,3,"How well does this name fit this image?",9,"VCS_290.png",2,"trial_lists/trial_list_2","Male","Yes","61","masters",NA,NA,NA,183678,"A17V85U8PXS4LJ","3IO1LGZLK9YJMIQHZHJY3CQRBRD68P",290,"11/22/2019 12:17:30 AM","11/22/2019 12:22:20 AM","Approved",0.3,0,0.04,"CZadsiTir5DgP",NA,NA,NA,NA
"A17V85U8PXS4LJ","Please name this image",224.908,17490,"baseball plate with star extension",1583,227.495,2,"How well does this name fit this image?",13,"VCS_260.png",2,"trial_lists/trial_list_2","Male","Yes","61","masters",NA,NA,NA,183678,"A17V85U8PXS4LJ","3IO1LGZLK9YJMIQHZHJY3CQRBRD68P",290,"11/22/2019 12:17:30 AM","11/22/2019 12:22:20 AM","Approved",0.3,0,0.04,"CZadsiTir5DgP",NA,NA,NA,NA
"A17V85U8PXS4LJ","Please name this image",113.547,7144,"four sided star",1262,115.813,3,"How well does this name fit this image?",7,"VCS_350.png",2,"trial_lists/trial_list_2","Male","Yes","61","masters",NA,NA,NA,183678,"A17V85U8PXS4LJ","3IO1LGZLK9YJMIQHZHJY3CQRBRD68P",290,"11/22/2019 12:17:30 AM","11/22/2019 12:22:20 AM","Approved",0.3,0,0.04,"CZadsiTir5DgP",NA,NA,NA,NA
"A17V85U8PXS4LJ","Please name this image",104.026,5144,"triangle",1366,106.397,4,"How well does this name fit this image?",6,"triangle.png",2,"trial_lists/trial_list_2","Male","Yes","61","masters",NA,NA,NA,183678,"A17V85U8PXS4LJ","3IO1LGZLK9YJMIQHZHJY3CQRBRD68P",290,"11/22/2019 12:17:30 AM","11/22/2019 12:22:20 AM","Approved",0.3,0,0.04,"CZadsiTir5DgP",NA,NA,NA,NA
"A17V85U8PXS4LJ","Please name this image",95.977,7041,"square",1894,98.876,4,"How well does this name fit this image?",5,"square.png",2,"trial_lists/trial_list_2","Male","Yes","61","masters",NA,NA,NA,183678,"A17V85U8PXS4LJ","3IO1LGZLK9YJMIQHZHJY3CQRBRD68P",290,"11/22/2019 12:17:30 AM","11/22/2019 12:22:20 AM","Approved",0.3,0,0.04,"CZadsiTir5DgP",NA,NA,NA,NA
"A17V85U8PXS4LJ","Please name this image",262.416,15129,"odd-shaped pentagon",1630,265.05,3,"How well does this name fit this image?",15,"VCS_230.png",2,"trial_lists/trial_list_2","Male","Yes","61","masters",NA,NA,NA,183678,"A17V85U8PXS4LJ","3IO1LGZLK9YJMIQHZHJY3CQRBRD68P",290,"11/22/2019 12:17:30 AM","11/22/2019 12:22:20 AM","Approved",0.3,0,0.04,"CZadsiTir5DgP",NA,NA,NA,NA
"A17V85U8PXS4LJ","Please name this image",188.569,24250,"three-starlike on pointed base",1197,190.771,1,"How well does this name fit this image?",11,"VCS_320.png",2,"trial_lists/trial_list_2","Male","Yes","61","masters",NA,NA,NA,183678,"A17V85U8PXS4LJ","3IO1LGZLK9YJMIQHZHJY3CQRBRD68P",290,"11/22/2019 12:17:30 AM","11/22/2019 12:22:20 AM","Approved",0.3,0,0.04,"CZadsiTir5DgP",NA,NA,NA,NA
"A17V85U8PXS4LJ","Please name this image",160.823,16241,"symmetrical but not straight pentagon",2486,164.313,2,"How well does this name fit this image?",10,"VCS_200.png",2,"trial_lists/trial_list_2","Male","Yes","61","masters",NA,NA,NA,183678,"A17V85U8PXS4LJ","3IO1LGZLK9YJMIQHZHJY3CQRBRD68P",290,"11/22/2019 12:17:30 AM","11/22/2019 12:22:20 AM","Approved",0.3,0,0.04,"CZadsiTir5DgP",NA,NA,NA,NA
"A17V85U8PXS4LJ","Please name this image",125.956,10137,"animal faced outline",2302,129.262,2,"How well does this name fit this image?",8,"VCS_140.png",2,"trial_lists/trial_list_2","Male","Yes","61","masters",NA,NA,NA,183678,"A17V85U8PXS4LJ","3IO1LGZLK9YJMIQHZHJY3CQRBRD68P",290,"11/22/2019 12:17:30 AM","11/22/2019 12:22:20 AM","Approved",0.3,0,0.04,"CZadsiTir5DgP",NA,NA,NA,NA
"A17V85U8PXS4LJ","Please name this image",244.662,17164,"full semi-circle supporting arc",1614,247.281,2,"How well does this name fit this image?",14,"VCS_110.png",2,"trial_lists/trial_list_2","Male","Yes","61","masters",NA,NA,NA,183678,"A17V85U8PXS4LJ","3IO1LGZLK9YJMIQHZHJY3CQRBRD68P",290,"11/22/2019 12:17:30 AM","11/22/2019 12:22:20 AM","Approved",0.3,0,0.04,"CZadsiTir5DgP",NA,NA,NA,NA
"A17V85U8PXS4LJ","Please name this image",25.651,9554,"X-pattern squiggle",5100,31.758,2,"How well does this name fit this image?",1,"VCS_50.png",2,"trial_lists/trial_list_2","Male","Yes","61","masters",NA,NA,NA,183678,"A17V85U8PXS4LJ","3IO1LGZLK9YJMIQHZHJY3CQRBRD68P",290,"11/22/2019 12:17:30 AM","11/22/2019 12:22:20 AM","Approved",0.3,0,0.04,"CZadsiTir5DgP",NA,NA,NA,NA
"A17V85U8PXS4LJ","Please name this image",52.869,21102,"Vase like with a symmetrical middle depression",1518,55.392,3,"How well does this name fit this image?",2,"VCS_170.png",2,"trial_lists/trial_list_2","Male","Yes","61","masters",NA,NA,NA,183678,"A17V85U8PXS4LJ","3IO1LGZLK9YJMIQHZHJY3CQRBRD68P",290,"11/22/2019 12:17:30 AM","11/22/2019 12:22:20 AM","Approved",0.3,0,0.04,"CZadsiTir5DgP",NA,NA,NA,NA
"A17V85U8PXS4LJ","Please name this image",203.379,12601,"titled distorted x-shape",3030,207.413,2,"How well does this name fit this image?",12,"VCS_20.png",2,"trial_lists/trial_list_2","Male","Yes","61","masters",NA,NA,NA,183678,"A17V85U8PXS4LJ","3IO1LGZLK9YJMIQHZHJY3CQRBRD68P",290,"11/22/2019 12:17:30 AM","11/22/2019 12:22:20 AM","Approved",0.3,0,0.04,"CZadsiTir5DgP",NA,NA,NA,NA
"A17WS5TP6OPH7R","Please name this image",81.787,22081,"bear face",3787,86.579,2,"How well does this name fit this image?",2,"VCS_160.png",1,"trial_lists/trial_list_1","Female","Yes","40","High school diploma",NA,NA,NA,183678,"A17WS5TP6OPH7R","3FQ5JJ512LPBO4YA7N2IVSL41G7NK8",955,"11/21/2019 11:16:38 PM","11/21/2019 11:32:33 PM","Approved",0.3,0,0.04,"o5FNViTi0eOfw",NA,NA,NA,NA
"A17WS5TP6OPH7R","Please name this image",234.722,19230,"bunnyglob",1663,237.393,2,"How well does this name fit this image?",9,"VCS_70.png",1,"trial_lists/trial_list_1","Female","Yes","40","High school diploma",NA,NA,NA,183678,"A17WS5TP6OPH7R","3FQ5JJ512LPBO4YA7N2IVSL41G7NK8",955,"11/21/2019 11:16:38 PM","11/21/2019 11:32:33 PM","Approved",0.3,0,0.04,"o5FNViTi0eOfw",NA,NA,NA,NA
"A17WS5TP6OPH7R","Please name this image",121.255,34654,"clouded",2947,125.207,1,"How well does this name fit this image?",3,"VCS_190.png",1,"trial_lists/trial_list_1","Female","Yes","40","High school diploma",NA,NA,NA,183678,"A17WS5TP6OPH7R","3FQ5JJ512LPBO4YA7N2IVSL41G7NK8",955,"11/21/2019 11:16:38 PM","11/21/2019 11:32:33 PM","Approved",0.3,0,0.04,"o5FNViTi0eOfw",NA,NA,NA,NA
"A17WS5TP6OPH7R","Please name this image",185.991,17694,"beardog",2071,189.068,2,"How well does this name fit this image?",7,"dog.png",1,"trial_lists/trial_list_1","Female","Yes","40","High school diploma",NA,NA,NA,183678,"A17WS5TP6OPH7R","3FQ5JJ512LPBO4YA7N2IVSL41G7NK8",955,"11/21/2019 11:16:38 PM","11/21/2019 11:32:33 PM","Approved",0.3,0,0.04,"o5FNViTi0eOfw",NA,NA,NA,NA
"A17WS5TP6OPH7R","Please name this image",364.009,37467,"rabbitglob",2332,367.347,1,"How well does this name fit this image?",14,"VCS_100.png",1,"trial_lists/trial_list_1","Female","Yes","40","High school diploma",NA,NA,NA,183678,"A17WS5TP6OPH7R","3FQ5JJ512LPBO4YA7N2IVSL41G7NK8",955,"11/21/2019 11:16:38 PM","11/21/2019 11:32:33 PM","Approved",0.3,0,0.04,"o5FNViTi0eOfw",NA,NA,NA,NA
"A17WS5TP6OPH7R","Please name this image",257.737,20321,"oxstar",1399,260.142,3,"How well does this name fit this image?",10,"VCS_280.png",1,"trial_lists/trial_list_1","Female","Yes","40","High school diploma",NA,NA,NA,183678,"A17WS5TP6OPH7R","3FQ5JJ512LPBO4YA7N2IVSL41G7NK8",955,"11/21/2019 11:16:38 PM","11/21/2019 11:32:33 PM","Approved",0.3,0,0.04,"o5FNViTi0eOfw",NA,NA,NA,NA
"A17WS5TP6OPH7R","Please name this image",49.838,11398,"starish",8832,59.679,3,"How well does this name fit this image?",1,"VCS_250.png",1,"trial_lists/trial_list_1","Female","Yes","40","High school diploma",NA,NA,NA,183678,"A17WS5TP6OPH7R","3FQ5JJ512LPBO4YA7N2IVSL41G7NK8",955,"11/21/2019 11:16:38 PM","11/21/2019 11:32:33 PM","Approved",0.3,0,0.04,"o5FNViTi0eOfw",NA,NA,NA,NA
"A17WS5TP6OPH7R","Please name this image",152.122,11973,"treeangle",1794,154.924,3,"How well does this name fit this image?",5,"triangle.png",1,"trial_lists/trial_list_1","Female","Yes","40","High school diploma",NA,NA,NA,183678,"A17WS5TP6OPH7R","3FQ5JJ512LPBO4YA7N2IVSL41G7NK8",955,"11/21/2019 11:16:38 PM","11/21/2019 11:32:33 PM","Approved",0.3,0,0.04,"o5FNViTi0eOfw",NA,NA,NA,NA
"A17WS5TP6OPH7R","Please name this image",280.839,20674,"globu",2691,284.535,1,"How well does this name fit this image?",11,"VCS_130.png",1,"trial_lists/trial_list_1","Female","Yes","40","High school diploma",NA,NA,NA,183678,"A17WS5TP6OPH7R","3FQ5JJ512LPBO4YA7N2IVSL41G7NK8",955,"11/21/2019 11:16:38 PM","11/21/2019 11:32:33 PM","Approved",0.3,0,0.04,"o5FNViTi0eOfw",NA,NA,NA,NA
"A17WS5TP6OPH7R","Please name this image",137.365,12138,"staree",1742,140.114,3,"How well does this name fit this image?",4,"VCS_10.png",1,"trial_lists/trial_list_1","Female","Yes","40","High school diploma",NA,NA,NA,183678,"A17WS5TP6OPH7R","3FQ5JJ512LPBO4YA7N2IVSL41G7NK8",955,"11/21/2019 11:16:38 PM","11/21/2019 11:32:33 PM","Approved",0.3,0,0.04,"o5FNViTi0eOfw",NA,NA,NA,NA
"A17WS5TP6OPH7R","Please name this image",212.602,23514,"swordtar",1865,215.473,2,"How well does this name fit this image?",8,"VCS_340.png",1,"trial_lists/trial_list_1","Female","Yes","40","High school diploma",NA,NA,NA,183678,"A17WS5TP6OPH7R","3FQ5JJ512LPBO4YA7N2IVSL41G7NK8",955,"11/21/2019 11:16:38 PM","11/21/2019 11:32:33 PM","Approved",0.3,0,0.04,"o5FNViTi0eOfw",NA,NA,NA,NA
"A17WS5TP6OPH7R","Please name this image",301.507,16945,"octoflat",1753,304.266,2,"How well does this name fit this image?",12,"VCS_220.png",1,"trial_lists/trial_list_1","Female","Yes","40","High school diploma",NA,NA,NA,183678,"A17WS5TP6OPH7R","3FQ5JJ512LPBO4YA7N2IVSL41G7NK8",955,"11/21/2019 11:16:38 PM","11/21/2019 11:32:33 PM","Approved",0.3,0,0.04,"o5FNViTi0eOfw",NA,NA,NA,NA
"A17WS5TP6OPH7R","Please name this image",323.631,19345,"squarer",1881,326.518,3,"How well does this name fit this image?",13,"square.png",1,"trial_lists/trial_list_1","Female","Yes","40","High school diploma",NA,NA,NA,183678,"A17WS5TP6OPH7R","3FQ5JJ512LPBO4YA7N2IVSL41G7NK8",955,"11/21/2019 11:16:38 PM","11/21/2019 11:32:33 PM","Approved",0.3,0,0.04,"o5FNViTi0eOfw",NA,NA,NA,NA
"A17WS5TP6OPH7R","Please name this image",382.206,14838,"fourglob",2128,385.341,1,"How well does this name fit this image?",15,"VCS_40.png",1,"trial_lists/trial_list_1","Female","Yes","40","High school diploma",NA,NA,NA,183678,"A17WS5TP6OPH7R","3FQ5JJ512LPBO4YA7N2IVSL41G7NK8",955,"11/21/2019 11:16:38 PM","11/21/2019 11:32:33 PM","Approved",0.3,0,0.04,"o5FNViTi0eOfw",NA,NA,NA,NA
"A17WS5TP6OPH7R","Please name this image",165.73,10784,"starup",1538,168.276,3,"How well does this name fit this image?",6,"VCS_310.png",1,"trial_lists/trial_list_1","Female","Yes","40","High school diploma",NA,NA,NA,183678,"A17WS5TP6OPH7R","3FQ5JJ512LPBO4YA7N2IVSL41G7NK8",955,"11/21/2019 11:16:38 PM","11/21/2019 11:32:33 PM","Approved",0.3,0,0.04,"o5FNViTi0eOfw",NA,NA,NA,NA
"A18UCBCCBKS6NY","Please name this image",47.021,7661,"yay",1821,49.847,2,"How well does this name fit this image?",3,"VCS_80.png",2,"trial_lists/trial_list_2","Male","Yes","38","Some college, no degree","none",NA,NA,183678,"A18UCBCCBKS6NY","3EO896NRAWWE8XXCMYOI3CRJBAKJTZ",296,"11/22/2019 12:26:31 AM","11/22/2019 12:31:27 AM","Approved",0.3,0,0.04,"ITiZgiTiyRkeL",NA,NA,NA,NA
"A18UCBCCBKS6NY","Please name this image",264.477,18887,"extra",1291,266.771,2,"How well does this name fit this image?",15,"VCS_20.png",2,"trial_lists/trial_list_2","Male","Yes","38","Some college, no degree","none",NA,NA,183678,"A18UCBCCBKS6NY","3EO896NRAWWE8XXCMYOI3CRJBAKJTZ",296,"11/22/2019 12:26:31 AM","11/22/2019 12:31:27 AM","Approved",0.3,0,0.04,"ITiZgiTiyRkeL",NA,NA,NA,NA
"A18UCBCCBKS6NY","Please name this image",190.915,19864,"starbase",1652,193.572,2,"How well does this name fit this image?",12,"VCS_260.png",2,"trial_lists/trial_list_2","Male","Yes","38","Some college, no degree","none",NA,NA,183678,"A18UCBCCBKS6NY","3EO896NRAWWE8XXCMYOI3CRJBAKJTZ",296,"11/22/2019 12:26:31 AM","11/22/2019 12:31:27 AM","Approved",0.3,0,0.04,"ITiZgiTiyRkeL",NA,NA,NA,NA
"A18UCBCCBKS6NY","Please name this image",234.634,41059,"pentagon",1756,237.395,3,"How well does this name fit this image?",13,"VCS_230.png",2,"trial_lists/trial_list_2","Male","Yes","38","Some college, no degree","none",NA,NA,183678,"A18UCBCCBKS6NY","3EO896NRAWWE8XXCMYOI3CRJBAKJTZ",296,"11/22/2019 12:26:31 AM","11/22/2019 12:31:27 AM","Approved",0.3,0,0.04,"ITiZgiTiyRkeL",NA,NA,NA,NA
"A18UCBCCBKS6NY","Please name this image",101.473,11262,"mask",760,103.238,2,"How well does this name fit this image?",7,"VCS_110.png",2,"trial_lists/trial_list_2","Male","Yes","38","Some college, no degree","none",NA,NA,183678,"A18UCBCCBKS6NY","3EO896NRAWWE8XXCMYOI3CRJBAKJTZ",296,"11/22/2019 12:26:31 AM","11/22/2019 12:31:27 AM","Approved",0.3,0,0.04,"ITiZgiTiyRkeL",NA,NA,NA,NA
"A18UCBCCBKS6NY","Please name this image",87.807,5160,"square",1396,90.208,4,"How well does this name fit this image?",6,"square.png",2,"trial_lists/trial_list_2","Male","Yes","38","Some college, no degree","none",NA,NA,183678,"A18UCBCCBKS6NY","3EO896NRAWWE8XXCMYOI3CRJBAKJTZ",296,"11/22/2019 12:26:31 AM","11/22/2019 12:31:27 AM","Approved",0.3,0,0.04,"ITiZgiTiyRkeL",NA,NA,NA,NA
"A18UCBCCBKS6NY","Please name this image",78.972,12870,"blob",2665,82.642,3,"How well does this name fit this image?",5,"VCS_50.png",2,"trial_lists/trial_list_2","Male","Yes","38","Some college, no degree","none",NA,NA,183678,"A18UCBCCBKS6NY","3EO896NRAWWE8XXCMYOI3CRJBAKJTZ",296,"11/22/2019 12:26:31 AM","11/22/2019 12:31:27 AM","Approved",0.3,0,0.04,"ITiZgiTiyRkeL",NA,NA,NA,NA
"A18UCBCCBKS6NY","Please name this image",160.675,17603,"starts",1162,162.841,2,"How well does this name fit this image?",10,"VCS_290.png",2,"trial_lists/trial_list_2","Male","Yes","38","Some college, no degree","none",NA,NA,183678,"A18UCBCCBKS6NY","3EO896NRAWWE8XXCMYOI3CRJBAKJTZ",296,"11/22/2019 12:26:31 AM","11/22/2019 12:31:27 AM","Approved",0.3,0,0.04,"ITiZgiTiyRkeL",NA,NA,NA,NA
"A18UCBCCBKS6NY","Please name this image",141.143,6929,"star",921,143.069,4,"How well does this name fit this image?",9,"VCS_350.png",2,"trial_lists/trial_list_2","Male","Yes","38","Some college, no degree","none",NA,NA,183678,"A18UCBCCBKS6NY","3EO896NRAWWE8XXCMYOI3CRJBAKJTZ",296,"11/22/2019 12:26:31 AM","11/22/2019 12:31:27 AM","Approved",0.3,0,0.04,"ITiZgiTiyRkeL",NA,NA,NA,NA
"A18UCBCCBKS6NY","Please name this image",24.064,10027,"lady",3856,28.927,3,"How well does this name fit this image?",1,"VCS_140.png",2,"trial_lists/trial_list_2","Male","Yes","38","Some college, no degree","none",NA,NA,183678,"A18UCBCCBKS6NY","3EO896NRAWWE8XXCMYOI3CRJBAKJTZ",296,"11/22/2019 12:26:31 AM","11/22/2019 12:31:27 AM","Approved",0.3,0,0.04,"ITiZgiTiyRkeL",NA,NA,NA,NA
"A18UCBCCBKS6NY","Please name this image",35.39,6459,"dog",2962,39.357,4,"How well does this name fit this image?",2,"dog.png",2,"trial_lists/trial_list_2","Male","Yes","38","Some college, no degree","none",NA,NA,183678,"A18UCBCCBKS6NY","3EO896NRAWWE8XXCMYOI3CRJBAKJTZ",296,"11/22/2019 12:26:31 AM","11/22/2019 12:31:27 AM","Approved",0.3,0,0.04,"ITiZgiTiyRkeL",NA,NA,NA,NA
"A18UCBCCBKS6NY","Please name this image",132.245,29003,"start",962,134.211,2,"How well does this name fit this image?",8,"VCS_320.png",2,"trial_lists/trial_list_2","Male","Yes","38","Some college, no degree","none",NA,NA,183678,"A18UCBCCBKS6NY","3EO896NRAWWE8XXCMYOI3CRJBAKJTZ",296,"11/22/2019 12:26:31 AM","11/22/2019 12:31:27 AM","Approved",0.3,0,0.04,"ITiZgiTiyRkeL",NA,NA,NA,NA
"A18UCBCCBKS6NY","Please name this image",243.484,6086,"bear",1098,245.587,2,"How well does this name fit this image?",14,"VCS_170.png",2,"trial_lists/trial_list_2","Male","Yes","38","Some college, no degree","none",NA,NA,183678,"A18UCBCCBKS6NY","3EO896NRAWWE8XXCMYOI3CRJBAKJTZ",296,"11/22/2019 12:26:31 AM","11/22/2019 12:31:27 AM","Approved",0.3,0,0.04,"ITiZgiTiyRkeL",NA,NA,NA,NA
"A18UCBCCBKS6NY","Please name this image",168.672,5829,"base",1371,171.048,2,"How well does this name fit this image?",11,"VCS_200.png",2,"trial_lists/trial_list_2","Male","Yes","38","Some college, no degree","none",NA,NA,183678,"A18UCBCCBKS6NY","3EO896NRAWWE8XXCMYOI3CRJBAKJTZ",296,"11/22/2019 12:26:31 AM","11/22/2019 12:31:27 AM","Approved",0.3,0,0.04,"ITiZgiTiyRkeL",NA,NA,NA,NA
"A18UCBCCBKS6NY","Please name this image",63.996,14146,"triangle",1098,66.099,4,"How well does this name fit this image?",4,"triangle.png",2,"trial_lists/trial_list_2","Male","Yes","38","Some college, no degree","none",NA,NA,183678,"A18UCBCCBKS6NY","3EO896NRAWWE8XXCMYOI3CRJBAKJTZ",296,"11/22/2019 12:26:31 AM","11/22/2019 12:31:27 AM","Approved",0.3,0,0.04,"ITiZgiTiyRkeL",NA,NA,NA,NA
"A195ALXEOWXS4A","Please name this image",52.591,4439,"starlette",765,54.36,2,"How well does this name fit this image?",4,"VCS_270.png",3,"trial_lists/trial_list_3","Male","Yes","26","bachelors","none",NA,NA,183678,"A195ALXEOWXS4A","3FPRZHYEPY8I0BZCO8WAONYFCY7V38",889,"11/22/2019 12:04:13 AM","11/22/2019 12:19:02 AM","Approved",0.3,0,0.04,"EjhHfiTiChRp1",NA,NA,NA,NA
"A195ALXEOWXS4A","Please name this image",61.122,6758,"shurikin",2505,64.632,2,"How well does this name fit this image?",5,"VCS_360.png",3,"trial_lists/trial_list_3","Male","Yes","26","bachelors","none",NA,NA,183678,"A195ALXEOWXS4A","3FPRZHYEPY8I0BZCO8WAONYFCY7V38",889,"11/22/2019 12:04:13 AM","11/22/2019 12:19:02 AM","Approved",0.3,0,0.04,"EjhHfiTiChRp1",NA,NA,NA,NA
"A195ALXEOWXS4A","Please name this image",102.332,5146,"trummel",835,104.172,2,"How well does this name fit this image?",11,"VCS_120.png",3,"trial_lists/trial_list_3","Male","Yes","26","bachelors","none",NA,NA,183678,"A195ALXEOWXS4A","3FPRZHYEPY8I0BZCO8WAONYFCY7V38",889,"11/22/2019 12:04:13 AM","11/22/2019 12:19:02 AM","Approved",0.3,0,0.04,"EjhHfiTiChRp1",NA,NA,NA,NA
"A195ALXEOWXS4A","Please name this image",68.448,3812,"plus",894,70.346,3,"How well does this name fit this image?",6,"VCS_30.png",3,"trial_lists/trial_list_3","Male","Yes","26","bachelors","none",NA,NA,183678,"A195ALXEOWXS4A","3FPRZHYEPY8I0BZCO8WAONYFCY7V38",889,"11/22/2019 12:04:13 AM","11/22/2019 12:19:02 AM","Approved",0.3,0,0.04,"EjhHfiTiChRp1",NA,NA,NA,NA
"A195ALXEOWXS4A","Please name this image",28.545,4470,"pentagon",3478,33.029,4,"How well does this name fit this image?",1,"VCS_210.png",3,"trial_lists/trial_list_3","Male","Yes","26","bachelors","none",NA,NA,183678,"A195ALXEOWXS4A","3FPRZHYEPY8I0BZCO8WAONYFCY7V38",889,"11/22/2019 12:04:13 AM","11/22/2019 12:19:02 AM","Approved",0.3,0,0.04,"EjhHfiTiChRp1",NA,NA,NA,NA
"A195ALXEOWXS4A","Please name this image",78.879,3864,"pentagon",1160,81.042,2,"How well does this name fit this image?",8,"VCS_240.png",3,"trial_lists/trial_list_3","Male","Yes","26","bachelors","none",NA,NA,183678,"A195ALXEOWXS4A","3FPRZHYEPY8I0BZCO8WAONYFCY7V38",889,"11/22/2019 12:04:13 AM","11/22/2019 12:19:02 AM","Approved",0.3,0,0.04,"EjhHfiTiChRp1",NA,NA,NA,NA
"A195ALXEOWXS4A","Please name this image",114.114,3712,"shrep",858,115.981,2,"How well does this name fit this image?",13,"VCS_60.png",3,"trial_lists/trial_list_3","Male","Yes","26","bachelors","none",NA,NA,183678,"A195ALXEOWXS4A","3FPRZHYEPY8I0BZCO8WAONYFCY7V38",889,"11/22/2019 12:04:13 AM","11/22/2019 12:19:02 AM","Approved",0.3,0,0.04,"EjhHfiTiChRp1",NA,NA,NA,NA
"A195ALXEOWXS4A","Please name this image",126.903,3034,"square",1222,129.131,4,"How well does this name fit this image?",15,"square.png",3,"trial_lists/trial_list_3","Male","Yes","26","bachelors","none",NA,NA,183678,"A195ALXEOWXS4A","3FPRZHYEPY8I0BZCO8WAONYFCY7V38",889,"11/22/2019 12:04:13 AM","11/22/2019 12:19:02 AM","Approved",0.3,0,0.04,"EjhHfiTiChRp1",NA,NA,NA,NA
"A195ALXEOWXS4A","Please name this image",86.286,5240,"ovulong",1496,88.788,2,"How well does this name fit this image?",9,"VCS_150.png",3,"trial_lists/trial_list_3","Male","Yes","26","bachelors","none",NA,NA,183678,"A195ALXEOWXS4A","3FPRZHYEPY8I0BZCO8WAONYFCY7V38",889,"11/22/2019 12:04:13 AM","11/22/2019 12:19:02 AM","Approved",0.3,0,0.04,"EjhHfiTiChRp1",NA,NA,NA,NA
"A195ALXEOWXS4A","Please name this image",107.551,3375,"dog",1839,110.397,4,"How well does this name fit this image?",12,"dog.png",3,"trial_lists/trial_list_3","Male","Yes","26","bachelors","none",NA,NA,183678,"A195ALXEOWXS4A","3FPRZHYEPY8I0BZCO8WAONYFCY7V38",889,"11/22/2019 12:04:13 AM","11/22/2019 12:19:02 AM","Approved",0.3,0,0.04,"EjhHfiTiChRp1",NA,NA,NA,NA
"A195ALXEOWXS4A","Please name this image",46.215,2913,"plumbus",926,48.148,3,"How well does this name fit this image?",3,"VCS_90.png",3,"trial_lists/trial_list_3","Male","Yes","26","bachelors","none",NA,NA,183678,"A195ALXEOWXS4A","3FPRZHYEPY8I0BZCO8WAONYFCY7V38",889,"11/22/2019 12:04:13 AM","11/22/2019 12:19:02 AM","Approved",0.3,0,0.04,"EjhHfiTiChRp1",NA,NA,NA,NA
"A195ALXEOWXS4A","Please name this image",95.274,6481,"spink",901,97.182,2,"How well does this name fit this image?",10,"VCS_330.png",3,"trial_lists/trial_list_3","Male","Yes","26","bachelors","none",NA,NA,183678,"A195ALXEOWXS4A","3FPRZHYEPY8I0BZCO8WAONYFCY7V38",889,"11/22/2019 12:04:13 AM","11/22/2019 12:19:02 AM","Approved",0.3,0,0.04,"EjhHfiTiChRp1",NA,NA,NA,NA
"A195ALXEOWXS4A","Please name this image",122.023,6037,"chil",836,123.863,2,"How well does this name fit this image?",14,"VCS_300.png",3,"trial_lists/trial_list_3","Male","Yes","26","bachelors","none",NA,NA,183678,"A195ALXEOWXS4A","3FPRZHYEPY8I0BZCO8WAONYFCY7V38",889,"11/22/2019 12:04:13 AM","11/22/2019 12:19:02 AM","Approved",0.3,0,0.04,"EjhHfiTiChRp1",NA,NA,NA,NA
"A195ALXEOWXS4A","Please name this image",72.934,2582,"triangle",1069,75.011,4,"How well does this name fit this image?",7,"triangle.png",3,"trial_lists/trial_list_3","Male","Yes","26","bachelors","none",NA,NA,183678,"A195ALXEOWXS4A","3FPRZHYEPY8I0BZCO8WAONYFCY7V38",889,"11/22/2019 12:04:13 AM","11/22/2019 12:19:02 AM","Approved",0.3,0,0.04,"EjhHfiTiChRp1",NA,NA,NA,NA
"A195ALXEOWXS4A","Please name this image",40.263,7227,"rhomboin",2029,43.297,2,"How well does this name fit this image?",2,"VCS_180.png",3,"trial_lists/trial_list_3","Male","Yes","26","bachelors","none",NA,NA,183678,"A195ALXEOWXS4A","3FPRZHYEPY8I0BZCO8WAONYFCY7V38",889,"11/22/2019 12:04:13 AM","11/22/2019 12:19:02 AM","Approved",0.3,0,0.04,"EjhHfiTiChRp1",NA,NA,NA,NA
"A19DZAFFZEU6GN","Please name this image",67.034,5625,"triangle",1077,69.125,4,"How well does this name fit this image?",4,"triangle.png",2,"trial_lists/trial_list_2","Prefer not to say","Yes","27","Prefer not to say","none",NA,NA,183678,"A19DZAFFZEU6GN","33PPO7FECVGBWXH9IQ33M7UXV87DIW",246,"11/21/2019 10:54:23 PM","11/21/2019 10:58:29 PM","Approved",0.3,0,0.04,"lWOT1iTiZG8HT",NA,NA,NA,NA
"A19DZAFFZEU6GN","Please name this image",125.588,56455,"blob",1612,128.207,1,"How well does this name fit this image?",5,"VCS_50.png",2,"trial_lists/trial_list_2","Prefer not to say","Yes","27","Prefer not to say","none",NA,NA,183678,"A19DZAFFZEU6GN","33PPO7FECVGBWXH9IQ33M7UXV87DIW",246,"11/21/2019 10:54:23 PM","11/21/2019 10:58:29 PM","Approved",0.3,0,0.04,"lWOT1iTiZG8HT",NA,NA,NA,NA
"A19DZAFFZEU6GN","Please name this image",162.456,6986,"pentagon",1508,164.97,3,"How well does this name fit this image?",9,"VCS_200.png",2,"trial_lists/trial_list_2","Prefer not to say","Yes","27","Prefer not to say","none",NA,NA,183678,"A19DZAFFZEU6GN","33PPO7FECVGBWXH9IQ33M7UXV87DIW",246,"11/21/2019 10:54:23 PM","11/21/2019 10:58:29 PM","Approved",0.3,0,0.04,"lWOT1iTiZG8HT",NA,NA,NA,NA
"A19DZAFFZEU6GN","Please name this image",50.25,9147,"slice of bread",10142,61.399,3,"How well does this name fit this image?",3,"VCS_170.png",2,"trial_lists/trial_list_2","Prefer not to say","Yes","27","Prefer not to say","none",NA,NA,183678,"A19DZAFFZEU6GN","33PPO7FECVGBWXH9IQ33M7UXV87DIW",246,"11/21/2019 10:54:23 PM","11/21/2019 10:58:29 PM","Approved",0.3,0,0.04,"lWOT1iTiZG8HT",NA,NA,NA,NA
"A19DZAFFZEU6GN","Please name this image",27.544,4020,"star",3034,31.586,3,"How well does this name fit this image?",1,"VCS_320.png",2,"trial_lists/trial_list_2","Prefer not to say","Yes","27","Prefer not to say","none",NA,NA,183678,"A19DZAFFZEU6GN","33PPO7FECVGBWXH9IQ33M7UXV87DIW",246,"11/21/2019 10:54:23 PM","11/21/2019 10:58:29 PM","Approved",0.3,0,0.04,"lWOT1iTiZG8HT",NA,NA,NA,NA
"A19DZAFFZEU6GN","Please name this image",199.415,4962,"star",1759,202.179,3,"How well does this name fit this image?",14,"VCS_20.png",2,"trial_lists/trial_list_2","Prefer not to say","Yes","27","Prefer not to say","none",NA,NA,183678,"A19DZAFFZEU6GN","33PPO7FECVGBWXH9IQ33M7UXV87DIW",246,"11/21/2019 10:54:23 PM","11/21/2019 10:58:29 PM","Approved",0.3,0,0.04,"lWOT1iTiZG8HT",NA,NA,NA,NA
"A19DZAFFZEU6GN","Please name this image",142.43,8762,"blob",4846,148.282,1,"How well does this name fit this image?",7,"VCS_80.png",2,"trial_lists/trial_list_2","Prefer not to say","Yes","27","Prefer not to say","none",NA,NA,183678,"A19DZAFFZEU6GN","33PPO7FECVGBWXH9IQ33M7UXV87DIW",246,"11/21/2019 10:54:23 PM","11/21/2019 10:58:29 PM","Approved",0.3,0,0.04,"lWOT1iTiZG8HT",NA,NA,NA,NA
"A19DZAFFZEU6GN","Please name this image",192.039,5923,"apron",1403,194.448,2,"How well does this name fit this image?",13,"VCS_110.png",2,"trial_lists/trial_list_2","Prefer not to say","Yes","27","Prefer not to say","none",NA,NA,183678,"A19DZAFFZEU6GN","33PPO7FECVGBWXH9IQ33M7UXV87DIW",246,"11/21/2019 10:54:23 PM","11/21/2019 10:58:29 PM","Approved",0.3,0,0.04,"lWOT1iTiZG8HT",NA,NA,NA,NA
"A19DZAFFZEU6GN","Please name this image",152.128,3842,"dog",2328,155.463,3,"How well does this name fit this image?",8,"dog.png",2,"trial_lists/trial_list_2","Prefer not to say","Yes","27","Prefer not to say","none",NA,NA,183678,"A19DZAFFZEU6GN","33PPO7FECVGBWXH9IQ33M7UXV87DIW",246,"11/21/2019 10:54:23 PM","11/21/2019 10:58:29 PM","Approved",0.3,0,0.04,"lWOT1iTiZG8HT",NA,NA,NA,NA
"A19DZAFFZEU6GN","Please name this image",36.123,4525,"jug",3969,41.098,2,"How well does this name fit this image?",2,"VCS_140.png",2,"trial_lists/trial_list_2","Prefer not to say","Yes","27","Prefer not to say","none",NA,NA,183678,"A19DZAFFZEU6GN","33PPO7FECVGBWXH9IQ33M7UXV87DIW",246,"11/21/2019 10:54:23 PM","11/21/2019 10:58:29 PM","Approved",0.3,0,0.04,"lWOT1iTiZG8HT",NA,NA,NA,NA
"A19DZAFFZEU6GN","Please name this image",168.949,3974,"star",977,170.932,3,"How well does this name fit this image?",10,"VCS_260.png",2,"trial_lists/trial_list_2","Prefer not to say","Yes","27","Prefer not to say","none",NA,NA,183678,"A19DZAFFZEU6GN","33PPO7FECVGBWXH9IQ33M7UXV87DIW",246,"11/21/2019 10:54:23 PM","11/21/2019 10:58:29 PM","Approved",0.3,0,0.04,"lWOT1iTiZG8HT",NA,NA,NA,NA
"A19DZAFFZEU6GN","Please name this image",176.518,5582,"star",1601,179.124,2,"How well does this name fit this image?",11,"VCS_290.png",2,"trial_lists/trial_list_2","Prefer not to say","Yes","27","Prefer not to say","none",NA,NA,183678,"A19DZAFFZEU6GN","33PPO7FECVGBWXH9IQ33M7UXV87DIW",246,"11/21/2019 10:54:23 PM","11/21/2019 10:58:29 PM","Approved",0.3,0,0.04,"lWOT1iTiZG8HT",NA,NA,NA,NA
"A19DZAFFZEU6GN","Please name this image",131.579,3365,"square",1080,133.663,4,"How well does this name fit this image?",6,"square.png",2,"trial_lists/trial_list_2","Prefer not to say","Yes","27","Prefer not to say","none",NA,NA,183678,"A19DZAFFZEU6GN","33PPO7FECVGBWXH9IQ33M7UXV87DIW",246,"11/21/2019 10:54:23 PM","11/21/2019 10:58:29 PM","Approved",0.3,0,0.04,"lWOT1iTiZG8HT",NA,NA,NA,NA
"A19DZAFFZEU6GN","Please name this image",208.579,6395,"pentagon",1468,211.053,3,"How well does this name fit this image?",15,"VCS_230.png",2,"trial_lists/trial_list_2","Prefer not to say","Yes","27","Prefer not to say","none",NA,NA,183678,"A19DZAFFZEU6GN","33PPO7FECVGBWXH9IQ33M7UXV87DIW",246,"11/21/2019 10:54:23 PM","11/21/2019 10:58:29 PM","Approved",0.3,0,0.04,"lWOT1iTiZG8HT",NA,NA,NA,NA
"A19DZAFFZEU6GN","Please name this image",182.788,3658,"star",2318,186.112,3,"How well does this name fit this image?",12,"VCS_350.png",2,"trial_lists/trial_list_2","Prefer not to say","Yes","27","Prefer not to say","none",NA,NA,183678,"A19DZAFFZEU6GN","33PPO7FECVGBWXH9IQ33M7UXV87DIW",246,"11/21/2019 10:54:23 PM","11/21/2019 10:58:29 PM","Approved",0.3,0,0.04,"lWOT1iTiZG8HT",NA,NA,NA,NA
"A1A6VHOP1K7RIM","Please name this image",177.908,18662,"face",3946,182.859,1,"How well does this name fit this image?",7,"VCS_130.png",1,"trial_lists/trial_list_1","Male","Yes","74","masters",NA,NA,NA,183678,"A1A6VHOP1K7RIM","31JLPPHS2UVNARQFNWAWTV47G5B3OF",449,"11/22/2019 12:04:08 AM","11/22/2019 12:11:37 AM","Approved",0.3,0,0.04,"vYxnQiTijCP47",NA,NA,NA,NA
"A1A6VHOP1K7RIM","Please name this image",327.172,35898,"star",3818,331.994,2,"How well does this name fit this image?",11,"VCS_340.png",1,"trial_lists/trial_list_1","Male","Yes","74","masters",NA,NA,NA,183678,"A1A6VHOP1K7RIM","31JLPPHS2UVNARQFNWAWTV47G5B3OF",449,"11/22/2019 12:04:08 AM","11/22/2019 12:11:37 AM","Approved",0.3,0,0.04,"vYxnQiTijCP47",NA,NA,NA,NA
"A1A6VHOP1K7RIM","Please name this image",235.627,31747,"body",3078,239.711,2,"How well does this name fit this image?",9,"VCS_70.png",1,"trial_lists/trial_list_1","Male","Yes","74","masters",NA,NA,NA,183678,"A1A6VHOP1K7RIM","31JLPPHS2UVNARQFNWAWTV47G5B3OF",449,"11/22/2019 12:04:08 AM","11/22/2019 12:11:37 AM","Approved",0.3,0,0.04,"vYxnQiTijCP47",NA,NA,NA,NA
"A1A6VHOP1K7RIM","Please name this image",196.726,13853,"starfish",6135,203.866,2,"How well does this name fit this image?",8,"VCS_40.png",1,"trial_lists/trial_list_1","Male","Yes","74","masters",NA,NA,NA,183678,"A1A6VHOP1K7RIM","31JLPPHS2UVNARQFNWAWTV47G5B3OF",449,"11/22/2019 12:04:08 AM","11/22/2019 12:11:37 AM","Approved",0.3,0,0.04,"vYxnQiTijCP47",NA,NA,NA,NA
"A1A6VHOP1K7RIM","Please name this image",387.897,10048,"square",3077,391.98,4,"How well does this name fit this image?",14,"square.png",1,"trial_lists/trial_list_1","Male","Yes","74","masters",NA,NA,NA,183678,"A1A6VHOP1K7RIM","31JLPPHS2UVNARQFNWAWTV47G5B3OF",449,"11/22/2019 12:04:08 AM","11/22/2019 12:11:37 AM","Approved",0.3,0,0.04,"vYxnQiTijCP47",NA,NA,NA,NA
"A1A6VHOP1K7RIM","Please name this image",62.904,19977,"thorax",6302,70.214,2,"How well does this name fit this image?",1,"VCS_190.png",1,"trial_lists/trial_list_1","Male","Yes","74","masters",NA,NA,NA,183678,"A1A6VHOP1K7RIM","31JLPPHS2UVNARQFNWAWTV47G5B3OF",449,"11/22/2019 12:04:08 AM","11/22/2019 12:11:37 AM","Approved",0.3,0,0.04,"vYxnQiTijCP47",NA,NA,NA,NA
"A1A6VHOP1K7RIM","Please name this image",134.077,20920,"barn",4075,139.157,1,"How well does this name fit this image?",5,"VCS_220.png",1,"trial_lists/trial_list_1","Male","Yes","74","masters",NA,NA,NA,183678,"A1A6VHOP1K7RIM","31JLPPHS2UVNARQFNWAWTV47G5B3OF",449,"11/22/2019 12:04:08 AM","11/22/2019 12:11:37 AM","Approved",0.3,0,0.04,"vYxnQiTijCP47",NA,NA,NA,NA
"A1A6VHOP1K7RIM","Please name this image",109.909,11883,"triangle",2231,113.145,4,"How well does this name fit this image?",4,"triangle.png",1,"trial_lists/trial_list_1","Male","Yes","74","masters",NA,NA,NA,183678,"A1A6VHOP1K7RIM","31JLPPHS2UVNARQFNWAWTV47G5B3OF",449,"11/22/2019 12:04:08 AM","11/22/2019 12:11:37 AM","Approved",0.3,0,0.04,"vYxnQiTijCP47",NA,NA,NA,NA
"A1A6VHOP1K7RIM","Please name this image",153.036,13865,"starfish",5192,159.235,3,"How well does this name fit this image?",6,"VCS_10.png",1,"trial_lists/trial_list_1","Male","Yes","74","masters",NA,NA,NA,183678,"A1A6VHOP1K7RIM","31JLPPHS2UVNARQFNWAWTV47G5B3OF",449,"11/22/2019 12:04:08 AM","11/22/2019 12:11:37 AM","Approved",0.3,0,0.04,"vYxnQiTijCP47",NA,NA,NA,NA
"A1A6VHOP1K7RIM","Please name this image",362.53,30524,"angel",2230,365.765,2,"How well does this name fit this image?",12,"VCS_310.png",1,"trial_lists/trial_list_1","Male","Yes","74","masters",NA,NA,NA,183678,"A1A6VHOP1K7RIM","31JLPPHS2UVNARQFNWAWTV47G5B3OF",449,"11/22/2019 12:04:08 AM","11/22/2019 12:11:37 AM","Approved",0.3,0,0.04,"vYxnQiTijCP47",NA,NA,NA,NA
"A1A6VHOP1K7RIM","Please name this image",93.967,8506,"dog",3039,98.011,4,"How well does this name fit this image?",3,"dog.png",1,"trial_lists/trial_list_1","Male","Yes","74","masters",NA,NA,NA,183678,"A1A6VHOP1K7RIM","31JLPPHS2UVNARQFNWAWTV47G5B3OF",449,"11/22/2019 12:04:08 AM","11/22/2019 12:11:37 AM","Approved",0.3,0,0.04,"vYxnQiTijCP47",NA,NA,NA,NA
"A1A6VHOP1K7RIM","Please name this image",288.469,48744,"star",1785,291.259,1,"How well does this name fit this image?",10,"VCS_280.png",1,"trial_lists/trial_list_1","Male","Yes","74","masters",NA,NA,NA,183678,"A1A6VHOP1K7RIM","31JLPPHS2UVNARQFNWAWTV47G5B3OF",449,"11/22/2019 12:04:08 AM","11/22/2019 12:11:37 AM","Approved",0.3,0,0.04,"vYxnQiTijCP47",NA,NA,NA,NA
"A1A6VHOP1K7RIM","Please name this image",403.159,11165,"pot",3336,407.5,3,"How well does this name fit this image?",15,"VCS_160.png",1,"trial_lists/trial_list_1","Male","Yes","74","masters",NA,NA,NA,183678,"A1A6VHOP1K7RIM","31JLPPHS2UVNARQFNWAWTV47G5B3OF",449,"11/22/2019 12:04:08 AM","11/22/2019 12:11:37 AM","Approved",0.3,0,0.04,"vYxnQiTijCP47",NA,NA,NA,NA
"A1A6VHOP1K7RIM","Please name this image",374.642,8863,"chest",2190,377.836,2,"How well does this name fit this image?",13,"VCS_100.png",1,"trial_lists/trial_list_1","Male","Yes","74","masters",NA,NA,NA,183678,"A1A6VHOP1K7RIM","31JLPPHS2UVNARQFNWAWTV47G5B3OF",449,"11/22/2019 12:04:08 AM","11/22/2019 12:11:37 AM","Approved",0.3,0,0.04,"vYxnQiTijCP47",NA,NA,NA,NA
"A1A6VHOP1K7RIM","Please name this image",81.498,11269,"starlike",2942,85.445,3,"How well does this name fit this image?",2,"VCS_250.png",1,"trial_lists/trial_list_1","Male","Yes","74","masters",NA,NA,NA,183678,"A1A6VHOP1K7RIM","31JLPPHS2UVNARQFNWAWTV47G5B3OF",449,"11/22/2019 12:04:08 AM","11/22/2019 12:11:37 AM","Approved",0.3,0,0.04,"vYxnQiTijCP47",NA,NA,NA,NA
"A1DO03UZMUZROP","Please name this image",224.095,6379,"face",2864,227.964,2,"How well does this name fit this image?",10,"VCS_170.png",2,"trial_lists/trial_list_2","Female","Yes","45","masters","none",NA,NA,183678,"A1DO03UZMUZROP","3AUQQEL7U5UMJJ0F5LERMP089MNV0D",350,"11/22/2019 12:04:07 AM","11/22/2019 12:09:57 AM","Approved",0.3,0,0.04,"K7AGNiTieRYWZ",NA,NA,NA,NA
"A1DO03UZMUZROP","Please name this image",82.942,6262,"triangle",2948,86.903,4,"How well does this name fit this image?",2,"triangle.png",2,"trial_lists/trial_list_2","Female","Yes","45","masters","none",NA,NA,183678,"A1DO03UZMUZROP","3AUQQEL7U5UMJJ0F5LERMP089MNV0D",350,"11/22/2019 12:04:07 AM","11/22/2019 12:09:57 AM","Approved",0.3,0,0.04,"K7AGNiTieRYWZ",NA,NA,NA,NA
"A1DO03UZMUZROP","Please name this image",61.972,7337,"star",13693,76.672,3,"How well does this name fit this image?",1,"VCS_230.png",2,"trial_lists/trial_list_2","Female","Yes","45","masters","none",NA,NA,183678,"A1DO03UZMUZROP","3AUQQEL7U5UMJJ0F5LERMP089MNV0D",350,"11/22/2019 12:04:07 AM","11/22/2019 12:09:57 AM","Approved",0.3,0,0.04,"K7AGNiTieRYWZ",NA,NA,NA,NA
"A1DO03UZMUZROP","Please name this image",174.689,8600,"plane",4707,180.409,3,"How well does this name fit this image?",6,"VCS_350.png",2,"trial_lists/trial_list_2","Female","Yes","45","masters","none",NA,NA,183678,"A1DO03UZMUZROP","3AUQQEL7U5UMJJ0F5LERMP089MNV0D",350,"11/22/2019 12:04:07 AM","11/22/2019 12:09:57 AM","Approved",0.3,0,0.04,"K7AGNiTieRYWZ",NA,NA,NA,NA
"A1DO03UZMUZROP","Please name this image",163.289,13372,"cross",1790,166.083,1,"How well does this name fit this image?",5,"VCS_320.png",2,"trial_lists/trial_list_2","Female","Yes","45","masters","none",NA,NA,183678,"A1DO03UZMUZROP","3AUQQEL7U5UMJJ0F5LERMP089MNV0D",350,"11/22/2019 12:04:07 AM","11/22/2019 12:09:57 AM","Approved",0.3,0,0.04,"K7AGNiTieRYWZ",NA,NA,NA,NA
"A1DO03UZMUZROP","Please name this image",236.719,8751,"rabbit",3305,241.044,2,"How well does this name fit this image?",11,"VCS_110.png",2,"trial_lists/trial_list_2","Female","Yes","45","masters","none",NA,NA,183678,"A1DO03UZMUZROP","3AUQQEL7U5UMJJ0F5LERMP089MNV0D",350,"11/22/2019 12:04:07 AM","11/22/2019 12:09:57 AM","Approved",0.3,0,0.04,"K7AGNiTieRYWZ",NA,NA,NA,NA
"A1DO03UZMUZROP","Please name this image",213.521,9635,"jellyfish",3185,217.712,1,"How well does this name fit this image?",9,"VCS_20.png",2,"trial_lists/trial_list_2","Female","Yes","45","masters","none",NA,NA,183678,"A1DO03UZMUZROP","3AUQQEL7U5UMJJ0F5LERMP089MNV0D",350,"11/22/2019 12:04:07 AM","11/22/2019 12:09:57 AM","Approved",0.3,0,0.04,"K7AGNiTieRYWZ",NA,NA,NA,NA
"A1DO03UZMUZROP","Please name this image",286.792,12434,"house",2497,290.3,1,"How well does this name fit this image?",14,"VCS_260.png",2,"trial_lists/trial_list_2","Female","Yes","45","masters","none",NA,NA,183678,"A1DO03UZMUZROP","3AUQQEL7U5UMJJ0F5LERMP089MNV0D",350,"11/22/2019 12:04:07 AM","11/22/2019 12:09:57 AM","Approved",0.3,0,0.04,"K7AGNiTieRYWZ",NA,NA,NA,NA
"A1DO03UZMUZROP","Please name this image",144.351,25618,"waistline",4555,149.912,2,"How well does this name fit this image?",4,"VCS_80.png",2,"trial_lists/trial_list_2","Female","Yes","45","masters","none",NA,NA,183678,"A1DO03UZMUZROP","3AUQQEL7U5UMJJ0F5LERMP089MNV0D",350,"11/22/2019 12:04:07 AM","11/22/2019 12:09:57 AM","Approved",0.3,0,0.04,"K7AGNiTieRYWZ",NA,NA,NA,NA
"A1DO03UZMUZROP","Please name this image",189.403,8990,"square",2019,192.428,4,"How well does this name fit this image?",7,"square.png",2,"trial_lists/trial_list_2","Female","Yes","45","masters","none",NA,NA,183678,"A1DO03UZMUZROP","3AUQQEL7U5UMJJ0F5LERMP089MNV0D",350,"11/22/2019 12:04:07 AM","11/22/2019 12:09:57 AM","Approved",0.3,0,0.04,"K7AGNiTieRYWZ",NA,NA,NA,NA
"A1DO03UZMUZROP","Please name this image",249.723,8674,"dog",4602,255.34,4,"How well does this name fit this image?",12,"dog.png",2,"trial_lists/trial_list_2","Female","Yes","45","masters","none",NA,NA,183678,"A1DO03UZMUZROP","3AUQQEL7U5UMJJ0F5LERMP089MNV0D",350,"11/22/2019 12:04:07 AM","11/22/2019 12:09:57 AM","Approved",0.3,0,0.04,"K7AGNiTieRYWZ",NA,NA,NA,NA
"A1DO03UZMUZROP","Please name this image",114.505,27598,"arms",3216,118.729,2,"How well does this name fit this image?",3,"VCS_290.png",2,"trial_lists/trial_list_2","Female","Yes","45","masters","none",NA,NA,183678,"A1DO03UZMUZROP","3AUQQEL7U5UMJJ0F5LERMP089MNV0D",350,"11/22/2019 12:04:07 AM","11/22/2019 12:09:57 AM","Approved",0.3,0,0.04,"K7AGNiTieRYWZ",NA,NA,NA,NA
"A1DO03UZMUZROP","Please name this image",271.106,15762,"vase",2231,274.353,2,"How well does this name fit this image?",13,"VCS_140.png",2,"trial_lists/trial_list_2","Female","Yes","45","masters","none",NA,NA,183678,"A1DO03UZMUZROP","3AUQQEL7U5UMJJ0F5LERMP089MNV0D",350,"11/22/2019 12:04:07 AM","11/22/2019 12:09:57 AM","Approved",0.3,0,0.04,"K7AGNiTieRYWZ",NA,NA,NA,NA
"A1DO03UZMUZROP","Please name this image",199.219,6786,"rock",3657,203.881,1,"How well does this name fit this image?",8,"VCS_200.png",2,"trial_lists/trial_list_2","Female","Yes","45","masters","none",NA,NA,183678,"A1DO03UZMUZROP","3AUQQEL7U5UMJJ0F5LERMP089MNV0D",350,"11/22/2019 12:04:07 AM","11/22/2019 12:09:57 AM","Approved",0.3,0,0.04,"K7AGNiTieRYWZ",NA,NA,NA,NA
"A1DO03UZMUZROP","Please name this image",310.099,19795,"bird",2374,313.477,2,"How well does this name fit this image?",15,"VCS_50.png",2,"trial_lists/trial_list_2","Female","Yes","45","masters","none",NA,NA,183678,"A1DO03UZMUZROP","3AUQQEL7U5UMJJ0F5LERMP089MNV0D",350,"11/22/2019 12:04:07 AM","11/22/2019 12:09:57 AM","Approved",0.3,0,0.04,"K7AGNiTieRYWZ",NA,NA,NA,NA
"A1EGD98S2MCHV6","Please name this image",410.448,16656,"starrang",4700,416.17,2,"How well does this name fit this image?",10,"VCS_360.png",3,"trial_lists/trial_list_3","Female","Yes","48","High school diploma","N/A","Thank you.",NA,183678,"A1EGD98S2MCHV6","3UN61F00HWQTLJ5ZT7FT2N7W5OM5RG",857,"11/22/2019 12:04:09 AM","11/22/2019 12:18:26 AM","Approved",0.3,0,0.04,"IBdr5iTiDC7yI",NA,NA,NA,NA
"A1EGD98S2MCHV6","Please name this image",286.656,84190,"drunk pentagon",3919,291.589,1,"How well does this name fit this image?",7,"VCS_210.png",3,"trial_lists/trial_list_3","Female","Yes","48","High school diploma","N/A","Thank you.",NA,183678,"A1EGD98S2MCHV6","3UN61F00HWQTLJ5ZT7FT2N7W5OM5RG",857,"11/22/2019 12:04:09 AM","11/22/2019 12:18:26 AM","Approved",0.3,0,0.04,"IBdr5iTiDC7yI",NA,NA,NA,NA
"A1EGD98S2MCHV6","Please name this image",387.28,70692,"wonkytop",5479,393.78,2,"How well does this name fit this image?",9,"VCS_180.png",3,"trial_lists/trial_list_3","Female","Yes","48","High school diploma","N/A","Thank you.",NA,183678,"A1EGD98S2MCHV6","3UN61F00HWQTLJ5ZT7FT2N7W5OM5RG",857,"11/22/2019 12:04:09 AM","11/22/2019 12:18:26 AM","Approved",0.3,0,0.04,"IBdr5iTiDC7yI",NA,NA,NA,NA
"A1EGD98S2MCHV6","Please name this image",313.625,22026,"star dagger",1935,316.57,1,"How well does this name fit this image?",8,"VCS_330.png",3,"trial_lists/trial_list_3","Female","Yes","48","High school diploma","N/A","Thank you.",NA,183678,"A1EGD98S2MCHV6","3UN61F00HWQTLJ5ZT7FT2N7W5OM5RG",857,"11/22/2019 12:04:09 AM","11/22/2019 12:18:26 AM","Approved",0.3,0,0.04,"IBdr5iTiDC7yI",NA,NA,NA,NA
"A1EGD98S2MCHV6","Please name this image",738.161,39163,"nakydog",2165,741.33,1,"How well does this name fit this image?",14,"dog.png",3,"trial_lists/trial_list_3","Female","Yes","48","High school diploma","N/A","Thank you.",NA,183678,"A1EGD98S2MCHV6","3UN61F00HWQTLJ5ZT7FT2N7W5OM5RG",857,"11/22/2019 12:04:09 AM","11/22/2019 12:18:26 AM","Approved",0.3,0,0.04,"IBdr5iTiDC7yI",NA,NA,NA,NA
"A1EGD98S2MCHV6","Please name this image",136.776,15216,"boomerrang",3021,140.822,2,"How well does this name fit this image?",3,"VCS_30.png",3,"trial_lists/trial_list_3","Female","Yes","48","High school diploma","N/A","Thank you.",NA,183678,"A1EGD98S2MCHV6","3UN61F00HWQTLJ5ZT7FT2N7W5OM5RG",857,"11/22/2019 12:04:09 AM","11/22/2019 12:18:26 AM","Approved",0.3,0,0.04,"IBdr5iTiDC7yI",NA,NA,NA,NA
"A1EGD98S2MCHV6","Please name this image",198.56,10238,"big square",2871,202.451,2,"How well does this name fit this image?",6,"square.png",3,"trial_lists/trial_list_3","Female","Yes","48","High school diploma","N/A","Thank you.",NA,183678,"A1EGD98S2MCHV6","3UN61F00HWQTLJ5ZT7FT2N7W5OM5RG",857,"11/22/2019 12:04:09 AM","11/22/2019 12:18:26 AM","Approved",0.3,0,0.04,"IBdr5iTiDC7yI",NA,NA,NA,NA
"A1EGD98S2MCHV6","Please name this image",694.104,126464,"topsinch",3855,698.98,1,"How well does this name fit this image?",13,"VCS_90.png",3,"trial_lists/trial_list_3","Female","Yes","48","High school diploma","N/A","Thank you.",NA,183678,"A1EGD98S2MCHV6","3UN61F00HWQTLJ5ZT7FT2N7W5OM5RG",857,"11/22/2019 12:04:09 AM","11/22/2019 12:18:26 AM","Approved",0.3,0,0.04,"IBdr5iTiDC7yI",NA,NA,NA,NA
"A1EGD98S2MCHV6","Please name this image",563.145,46073,"curveytorso",3470,567.62,1,"How well does this name fit this image?",12,"VCS_150.png",3,"trial_lists/trial_list_3","Female","Yes","48","High school diploma","N/A","Thank you.",NA,183678,"A1EGD98S2MCHV6","3UN61F00HWQTLJ5ZT7FT2N7W5OM5RG",857,"11/22/2019 12:04:09 AM","11/22/2019 12:18:26 AM","Approved",0.3,0,0.04,"IBdr5iTiDC7yI",NA,NA,NA,NA
"A1EGD98S2MCHV6","Please name this image",804.856,63512,"boomtagon",2182,808.06,1,"How well does this name fit this image?",15,"VCS_60.png",3,"trial_lists/trial_list_3","Female","Yes","48","High school diploma","N/A","Thank you.",NA,183678,"A1EGD98S2MCHV6","3UN61F00HWQTLJ5ZT7FT2N7W5OM5RG",857,"11/22/2019 12:04:09 AM","11/22/2019 12:18:26 AM","Approved",0.3,0,0.04,"IBdr5iTiDC7yI",NA,NA,NA,NA
"A1EGD98S2MCHV6","Please name this image",78.977,12771,"half star",8621,88.621,2,"How well does this name fit this image?",1,"VCS_270.png",3,"trial_lists/trial_list_3","Female","Yes","48","High school diploma","N/A","Thank you.",NA,183678,"A1EGD98S2MCHV6","3UN61F00HWQTLJ5ZT7FT2N7W5OM5RG",857,"11/22/2019 12:04:09 AM","11/22/2019 12:18:26 AM","Approved",0.3,0,0.04,"IBdr5iTiDC7yI",NA,NA,NA,NA
"A1EGD98S2MCHV6","Please name this image",111.842,23195,"torso shaped",8694,121.541,2,"How well does this name fit this image?",2,"VCS_120.png",3,"trial_lists/trial_list_3","Female","Yes","48","High school diploma","N/A","Thank you.",NA,183678,"A1EGD98S2MCHV6","3UN61F00HWQTLJ5ZT7FT2N7W5OM5RG",857,"11/22/2019 12:04:09 AM","11/22/2019 12:18:26 AM","Approved",0.3,0,0.04,"IBdr5iTiDC7yI",NA,NA,NA,NA
"A1EGD98S2MCHV6","Please name this image",512.632,96445,"sortanonagon",3422,517.061,1,"How well does this name fit this image?",11,"VCS_240.png",3,"trial_lists/trial_list_3","Female","Yes","48","High school diploma","N/A","Thank you.",NA,183678,"A1EGD98S2MCHV6","3UN61F00HWQTLJ5ZT7FT2N7W5OM5RG",857,"11/22/2019 12:04:09 AM","11/22/2019 12:18:26 AM","Approved",0.3,0,0.04,"IBdr5iTiDC7yI",NA,NA,NA,NA
"A1EGD98S2MCHV6","Please name this image",183.609,22930,"half star",3687,188.311,2,"How well does this name fit this image?",5,"VCS_300.png",3,"trial_lists/trial_list_3","Female","Yes","48","High school diploma","N/A","Thank you.",NA,183678,"A1EGD98S2MCHV6","3UN61F00HWQTLJ5ZT7FT2N7W5OM5RG",857,"11/22/2019 12:04:09 AM","11/22/2019 12:18:26 AM","Approved",0.3,0,0.04,"IBdr5iTiDC7yI",NA,NA,NA,NA
"A1EGD98S2MCHV6","Please name this image",156.529,15688,"skinny triangle",3127,160.661,2,"How well does this name fit this image?",4,"triangle.png",3,"trial_lists/trial_list_3","Female","Yes","48","High school diploma","N/A","Thank you.",NA,183678,"A1EGD98S2MCHV6","3UN61F00HWQTLJ5ZT7FT2N7W5OM5RG",857,"11/22/2019 12:04:09 AM","11/22/2019 12:18:26 AM","Approved",0.3,0,0.04,"IBdr5iTiDC7yI",NA,NA,NA,NA
"A1H3X72CRAQL7X","Please name this image",65.971,19353,"nonagon",1460,68.448,4,"How well does this name fit this image?",2,"VCS_240.png",3,"trial_lists/trial_list_3","Female","Yes","39","bachelors","none",NA,NA,183678,"A1H3X72CRAQL7X","3KWTYT08704IILAMONIXGBYXZWY5LR",319,"11/22/2019 12:32:17 AM","11/22/2019 12:37:36 AM","Approved",0.3,0,0.04,"dHJrViTiqP4BL",NA,NA,NA,NA
"A1H3X72CRAQL7X","Please name this image",234.578,33418,"triangle",3221,238.829,4,"How well does this name fit this image?",12,"triangle.png",3,"trial_lists/trial_list_3","Female","Yes","39","bachelors","none",NA,NA,183678,"A1H3X72CRAQL7X","3KWTYT08704IILAMONIXGBYXZWY5LR",319,"11/22/2019 12:32:17 AM","11/22/2019 12:37:36 AM","Approved",0.3,0,0.04,"dHJrViTiqP4BL",NA,NA,NA,NA
"A1H3X72CRAQL7X","Please name this image",123.587,4373,"rabbit",3147,127.752,1,"How well does this name fit this image?",6,"VCS_90.png",3,"trial_lists/trial_list_3","Female","Yes","39","bachelors","none",NA,NA,183678,"A1H3X72CRAQL7X","3KWTYT08704IILAMONIXGBYXZWY5LR",319,"11/22/2019 12:32:17 AM","11/22/2019 12:37:36 AM","Approved",0.3,0,0.04,"dHJrViTiqP4BL",NA,NA,NA,NA
"A1H3X72CRAQL7X","Please name this image",153.833,10270,"police badge",3788,158.639,3,"How well does this name fit this image?",9,"VCS_180.png",3,"trial_lists/trial_list_3","Female","Yes","39","bachelors","none",NA,NA,183678,"A1H3X72CRAQL7X","3KWTYT08704IILAMONIXGBYXZWY5LR",319,"11/22/2019 12:32:17 AM","11/22/2019 12:37:36 AM","Approved",0.3,0,0.04,"dHJrViTiqP4BL",NA,NA,NA,NA
"A1H3X72CRAQL7X","Please name this image",72.739,4262,"square",11531,85.287,4,"How well does this name fit this image?",3,"square.png",3,"trial_lists/trial_list_3","Female","Yes","39","bachelors","none",NA,NA,183678,"A1H3X72CRAQL7X","3KWTYT08704IILAMONIXGBYXZWY5LR",319,"11/22/2019 12:32:17 AM","11/22/2019 12:37:36 AM","Approved",0.3,0,0.04,"dHJrViTiqP4BL",NA,NA,NA,NA
"A1H3X72CRAQL7X","Please name this image",141.201,6695,"honey jar",1324,143.542,3,"How well does this name fit this image?",8,"VCS_150.png",3,"trial_lists/trial_list_3","Female","Yes","39","bachelors","none",NA,NA,183678,"A1H3X72CRAQL7X","3KWTYT08704IILAMONIXGBYXZWY5LR",319,"11/22/2019 12:32:17 AM","11/22/2019 12:37:36 AM","Approved",0.3,0,0.04,"dHJrViTiqP4BL",NA,NA,NA,NA
"A1H3X72CRAQL7X","Please name this image",116.94,22716,"rounded plus sign",1235,119.189,2,"How well does this name fit this image?",5,"VCS_30.png",3,"trial_lists/trial_list_3","Female","Yes","39","bachelors","none",NA,NA,183678,"A1H3X72CRAQL7X","3KWTYT08704IILAMONIXGBYXZWY5LR",319,"11/22/2019 12:32:17 AM","11/22/2019 12:37:36 AM","Approved",0.3,0,0.04,"dHJrViTiqP4BL",NA,NA,NA,NA
"A1H3X72CRAQL7X","Please name this image",131.645,3871,"dog",1811,134.478,4,"How well does this name fit this image?",7,"dog.png",3,"trial_lists/trial_list_3","Female","Yes","39","bachelors","none",NA,NA,183678,"A1H3X72CRAQL7X","3KWTYT08704IILAMONIXGBYXZWY5LR",319,"11/22/2019 12:32:17 AM","11/22/2019 12:37:36 AM","Approved",0.3,0,0.04,"dHJrViTiqP4BL",NA,NA,NA,NA
"A1H3X72CRAQL7X","Please name this image",248.033,9184,"nativity",1052,250.105,2,"How well does this name fit this image?",13,"VCS_210.png",3,"trial_lists/trial_list_3","Female","Yes","39","bachelors","none",NA,NA,183678,"A1H3X72CRAQL7X","3KWTYT08704IILAMONIXGBYXZWY5LR",319,"11/22/2019 12:32:17 AM","11/22/2019 12:37:36 AM","Approved",0.3,0,0.04,"dHJrViTiqP4BL",NA,NA,NA,NA
"A1H3X72CRAQL7X","Please name this image",254.929,4797,"blob",1267,257.223,2,"How well does this name fit this image?",14,"VCS_60.png",3,"trial_lists/trial_list_3","Female","Yes","39","bachelors","none",NA,NA,183678,"A1H3X72CRAQL7X","3KWTYT08704IILAMONIXGBYXZWY5LR",319,"11/22/2019 12:32:17 AM","11/22/2019 12:37:36 AM","Approved",0.3,0,0.04,"dHJrViTiqP4BL",NA,NA,NA,NA
"A1H3X72CRAQL7X","Please name this image",180.568,10960,"pointed plus sign",19550,201.135,3,"How well does this name fit this image?",11,"VCS_360.png",3,"trial_lists/trial_list_3","Female","Yes","39","bachelors","none",NA,NA,183678,"A1H3X72CRAQL7X","3KWTYT08704IILAMONIXGBYXZWY5LR",319,"11/22/2019 12:32:17 AM","11/22/2019 12:37:36 AM","Approved",0.3,0,0.04,"dHJrViTiqP4BL",NA,NA,NA,NA
"A1H3X72CRAQL7X","Please name this image",91.377,6066,"rabbit",1782,94.196,1,"How well does this name fit this image?",4,"VCS_120.png",3,"trial_lists/trial_list_3","Female","Yes","39","bachelors","none",NA,NA,183678,"A1H3X72CRAQL7X","3KWTYT08704IILAMONIXGBYXZWY5LR",319,"11/22/2019 12:32:17 AM","11/22/2019 12:37:36 AM","Approved",0.3,0,0.04,"dHJrViTiqP4BL",NA,NA,NA,NA
"A1H3X72CRAQL7X","Please name this image",42.651,19782,"star decagon",2847,46.537,3,"How well does this name fit this image?",1,"VCS_330.png",3,"trial_lists/trial_list_3","Female","Yes","39","bachelors","none",NA,NA,183678,"A1H3X72CRAQL7X","3KWTYT08704IILAMONIXGBYXZWY5LR",319,"11/22/2019 12:32:17 AM","11/22/2019 12:37:36 AM","Approved",0.3,0,0.04,"dHJrViTiqP4BL",NA,NA,NA,NA
"A1H3X72CRAQL7X","Please name this image",165.266,6584,"star square",3299,169.582,3,"How well does this name fit this image?",10,"VCS_270.png",3,"trial_lists/trial_list_3","Female","Yes","39","bachelors","none",NA,NA,183678,"A1H3X72CRAQL7X","3KWTYT08704IILAMONIXGBYXZWY5LR",319,"11/22/2019 12:32:17 AM","11/22/2019 12:37:36 AM","Approved",0.3,0,0.04,"dHJrViTiqP4BL",NA,NA,NA,NA
"A1H3X72CRAQL7X","Please name this image",265.136,7879,"star topper",3310,269.461,2,"How well does this name fit this image?",15,"VCS_300.png",3,"trial_lists/trial_list_3","Female","Yes","39","bachelors","none",NA,NA,183678,"A1H3X72CRAQL7X","3KWTYT08704IILAMONIXGBYXZWY5LR",319,"11/22/2019 12:32:17 AM","11/22/2019 12:37:36 AM","Approved",0.3,0,0.04,"dHJrViTiqP4BL",NA,NA,NA,NA
"A1H5Q9HRH4RPZU","Please name this image",126.605,2234,"shirt shape",481,128.099,1,"How well does this name fit this image?",15,"VCS_100.png",1,"trial_lists/trial_list_1","Male","Yes","37","Some college, no degree","none",NA,NA,183678,"A1H5Q9HRH4RPZU","3Z7VU45IPYI3ZSQ7217UL0WE2P1Z1M",680,"11/22/2019 12:09:33 AM","11/22/2019 12:20:53 AM","Approved",0.3,0,0.04,"Qw6B7iTi8LNtJ",NA,NA,NA,NA
"A1H5Q9HRH4RPZU","Please name this image",45.807,11132,"curved hexagon",1152,47.975,2,"How well does this name fit this image?",2,"VCS_190.png",1,"trial_lists/trial_list_1","Male","Yes","37","Some college, no degree","none",NA,NA,183678,"A1H5Q9HRH4RPZU","3Z7VU45IPYI3ZSQ7217UL0WE2P1Z1M",680,"11/22/2019 12:09:33 AM","11/22/2019 12:20:53 AM","Approved",0.3,0,0.04,"Qw6B7iTi8LNtJ",NA,NA,NA,NA
"A1H5Q9HRH4RPZU","Please name this image",83.946,1988,"triangle",2245,87.206,3,"How well does this name fit this image?",7,"triangle.png",1,"trial_lists/trial_list_1","Male","Yes","37","Some college, no degree","none",NA,NA,183678,"A1H5Q9HRH4RPZU","3Z7VU45IPYI3ZSQ7217UL0WE2P1Z1M",680,"11/22/2019 12:09:33 AM","11/22/2019 12:20:53 AM","Approved",0.3,0,0.04,"Qw6B7iTi8LNtJ",NA,NA,NA,NA
"A1H5Q9HRH4RPZU","Please name this image",99.406,7986,"half star",321,100.745,2,"How well does this name fit this image?",9,"VCS_310.png",1,"trial_lists/trial_list_1","Male","Yes","37","Some college, no degree","none",NA,NA,183678,"A1H5Q9HRH4RPZU","3Z7VU45IPYI3ZSQ7217UL0WE2P1Z1M",680,"11/22/2019 12:09:33 AM","11/22/2019 12:20:53 AM","Approved",0.3,0,0.04,"Qw6B7iTi8LNtJ",NA,NA,NA,NA
"A1H5Q9HRH4RPZU","Please name this image",80.474,7137,"shirt shape",437,81.926,1,"How well does this name fit this image?",6,"VCS_160.png",1,"trial_lists/trial_list_1","Male","Yes","37","Some college, no degree","none",NA,NA,183678,"A1H5Q9HRH4RPZU","3Z7VU45IPYI3ZSQ7217UL0WE2P1Z1M",680,"11/22/2019 12:09:33 AM","11/22/2019 12:20:53 AM","Approved",0.3,0,0.04,"Qw6B7iTi8LNtJ",NA,NA,NA,NA
"A1H5Q9HRH4RPZU","Please name this image",29.023,5010,"square",4593,34.654,3,"How well does this name fit this image?",1,"square.png",1,"trial_lists/trial_list_1","Male","Yes","37","Some college, no degree","none",NA,NA,183678,"A1H5Q9HRH4RPZU","3Z7VU45IPYI3ZSQ7217UL0WE2P1Z1M",680,"11/22/2019 12:09:33 AM","11/22/2019 12:20:53 AM","Approved",0.3,0,0.04,"Qw6B7iTi8LNtJ",NA,NA,NA,NA
"A1H5Q9HRH4RPZU","Please name this image",71.272,2031,"star",1034,73.322,2,"How well does this name fit this image?",5,"VCS_10.png",1,"trial_lists/trial_list_1","Male","Yes","37","Some college, no degree","none",NA,NA,183678,"A1H5Q9HRH4RPZU","3Z7VU45IPYI3ZSQ7217UL0WE2P1Z1M",680,"11/22/2019 12:09:33 AM","11/22/2019 12:20:53 AM","Approved",0.3,0,0.04,"Qw6B7iTi8LNtJ",NA,NA,NA,NA
"A1H5Q9HRH4RPZU","Please name this image",88.88,1648,"star",1504,91.398,3,"How well does this name fit this image?",8,"VCS_340.png",1,"trial_lists/trial_list_1","Male","Yes","37","Some college, no degree","none",NA,NA,183678,"A1H5Q9HRH4RPZU","3Z7VU45IPYI3ZSQ7217UL0WE2P1Z1M",680,"11/22/2019 12:09:33 AM","11/22/2019 12:20:53 AM","Approved",0.3,0,0.04,"Qw6B7iTi8LNtJ",NA,NA,NA,NA
"A1H5Q9HRH4RPZU","Please name this image",67.723,5475,"flat star",470,69.213,1,"How well does this name fit this image?",4,"VCS_280.png",1,"trial_lists/trial_list_1","Male","Yes","37","Some college, no degree","none",NA,NA,183678,"A1H5Q9HRH4RPZU","3Z7VU45IPYI3ZSQ7217UL0WE2P1Z1M",680,"11/22/2019 12:09:33 AM","11/22/2019 12:20:53 AM","Approved",0.3,0,0.04,"Qw6B7iTi8LNtJ",NA,NA,NA,NA
"A1H5Q9HRH4RPZU","Please name this image",112.435,2592,"hexagon",1034,114.486,3,"How well does this name fit this image?",12,"VCS_220.png",1,"trial_lists/trial_list_1","Male","Yes","37","Some college, no degree","none",NA,NA,183678,"A1H5Q9HRH4RPZU","3Z7VU45IPYI3ZSQ7217UL0WE2P1Z1M",680,"11/22/2019 12:09:33 AM","11/22/2019 12:20:53 AM","Approved",0.3,0,0.04,"Qw6B7iTi8LNtJ",NA,NA,NA,NA
"A1H5Q9HRH4RPZU","Please name this image",117.725,3217,"star",981,119.734,2,"How well does this name fit this image?",13,"VCS_40.png",1,"trial_lists/trial_list_1","Male","Yes","37","Some college, no degree","none",NA,NA,183678,"A1H5Q9HRH4RPZU","3Z7VU45IPYI3ZSQ7217UL0WE2P1Z1M",680,"11/22/2019 12:09:33 AM","11/22/2019 12:20:53 AM","Approved",0.3,0,0.04,"Qw6B7iTi8LNtJ",NA,NA,NA,NA
"A1H5Q9HRH4RPZU","Please name this image",60.382,12376,"shirt",830,62.225,1,"How well does this name fit this image?",3,"VCS_70.png",1,"trial_lists/trial_list_1","Male","Yes","37","Some college, no degree","none",NA,NA,183678,"A1H5Q9HRH4RPZU","3Z7VU45IPYI3ZSQ7217UL0WE2P1Z1M",680,"11/22/2019 12:09:33 AM","11/22/2019 12:20:53 AM","Approved",0.3,0,0.04,"Qw6B7iTi8LNtJ",NA,NA,NA,NA
"A1H5Q9HRH4RPZU","Please name this image",121.908,2123,"dog",1420,124.347,4,"How well does this name fit this image?",14,"dog.png",1,"trial_lists/trial_list_1","Male","Yes","37","Some college, no degree","none",NA,NA,183678,"A1H5Q9HRH4RPZU","3Z7VU45IPYI3ZSQ7217UL0WE2P1Z1M",680,"11/22/2019 12:09:33 AM","11/22/2019 12:20:53 AM","Approved",0.3,0,0.04,"Qw6B7iTi8LNtJ",NA,NA,NA,NA
"A1H5Q9HRH4RPZU","Please name this image",107.455,2391,"flat star",1358,109.828,2,"How well does this name fit this image?",11,"VCS_250.png",1,"trial_lists/trial_list_1","Male","Yes","37","Some college, no degree","none",NA,NA,183678,"A1H5Q9HRH4RPZU","3Z7VU45IPYI3ZSQ7217UL0WE2P1Z1M",680,"11/22/2019 12:09:33 AM","11/22/2019 12:20:53 AM","Approved",0.3,0,0.04,"Qw6B7iTi8LNtJ",NA,NA,NA,NA
"A1H5Q9HRH4RPZU","Please name this image",102.899,2127,"shirt",1114,105.026,1,"How well does this name fit this image?",10,"VCS_130.png",1,"trial_lists/trial_list_1","Male","Yes","37","Some college, no degree","none",NA,NA,183678,"A1H5Q9HRH4RPZU","3Z7VU45IPYI3ZSQ7217UL0WE2P1Z1M",680,"11/22/2019 12:09:33 AM","11/22/2019 12:20:53 AM","Approved",0.3,0,0.04,"Qw6B7iTi8LNtJ",NA,NA,NA,NA
"A1KHRQ121JTDF6","Please name this image",114.515,3715,"curve",912,116.432,3,"How well does this name fit this image?",13,"VCS_90.png",3,"trial_lists/trial_list_3","Female","Yes","25","bachelors",NA,NA,NA,183678,"A1KHRQ121JTDF6","3HFNH7HEMHFRPFFJXO9K1UOGZBYQGI",161,"11/22/2019 12:07:57 AM","11/22/2019 12:10:38 AM","Approved",0.3,0,0.04,"fCKeLiTie1pjM",NA,NA,NA,NA
"A1KHRQ121JTDF6","Please name this image",35.832,5341,"square",1802,38.638,4,"How well does this name fit this image?",4,"square.png",3,"trial_lists/trial_list_3","Female","Yes","25","bachelors",NA,NA,NA,183678,"A1KHRQ121JTDF6","3HFNH7HEMHFRPFFJXO9K1UOGZBYQGI",161,"11/22/2019 12:07:57 AM","11/22/2019 12:10:38 AM","Approved",0.3,0,0.04,"fCKeLiTie1pjM",NA,NA,NA,NA
"A1KHRQ121JTDF6","Please name this image",102.857,4900,"half star",973,104.835,3,"How well does this name fit this image?",11,"VCS_270.png",3,"trial_lists/trial_list_3","Female","Yes","25","bachelors",NA,NA,NA,183678,"A1KHRQ121JTDF6","3HFNH7HEMHFRPFFJXO9K1UOGZBYQGI",161,"11/22/2019 12:07:57 AM","11/22/2019 12:10:38 AM","Approved",0.3,0,0.04,"fCKeLiTie1pjM",NA,NA,NA,NA
"A1KHRQ121JTDF6","Please name this image",95.783,7425,"vase",1152,97.94,3,"How well does this name fit this image?",10,"VCS_150.png",3,"trial_lists/trial_list_3","Female","Yes","25","bachelors",NA,NA,NA,183678,"A1KHRQ121JTDF6","3HFNH7HEMHFRPFFJXO9K1UOGZBYQGI",161,"11/22/2019 12:07:57 AM","11/22/2019 12:10:38 AM","Approved",0.3,0,0.04,"fCKeLiTie1pjM",NA,NA,NA,NA
"A1KHRQ121JTDF6","Please name this image",86.495,5588,"ninja star",842,88.341,2,"How well does this name fit this image?",9,"VCS_360.png",3,"trial_lists/trial_list_3","Female","Yes","25","bachelors",NA,NA,NA,183678,"A1KHRQ121JTDF6","3HFNH7HEMHFRPFFJXO9K1UOGZBYQGI",161,"11/22/2019 12:07:57 AM","11/22/2019 12:10:38 AM","Approved",0.3,0,0.04,"fCKeLiTie1pjM",NA,NA,NA,NA
"A1KHRQ121JTDF6","Please name this image",131.302,7788,"dog",1517,133.824,4,"How well does this name fit this image?",15,"dog.png",3,"trial_lists/trial_list_3","Female","Yes","25","bachelors",NA,NA,NA,183678,"A1KHRQ121JTDF6","3HFNH7HEMHFRPFFJXO9K1UOGZBYQGI",161,"11/22/2019 12:07:57 AM","11/22/2019 12:10:38 AM","Approved",0.3,0,0.04,"fCKeLiTie1pjM",NA,NA,NA,NA
"A1KHRQ121JTDF6","Please name this image",28.528,5548,"bible",942,30.473,3,"How well does this name fit this image?",3,"VCS_120.png",3,"trial_lists/trial_list_3","Female","Yes","25","bachelors",NA,NA,NA,183678,"A1KHRQ121JTDF6","3HFNH7HEMHFRPFFJXO9K1UOGZBYQGI",161,"11/22/2019 12:07:57 AM","11/22/2019 12:10:38 AM","Approved",0.3,0,0.04,"fCKeLiTie1pjM",NA,NA,NA,NA
"A1KHRQ121JTDF6","Please name this image",63.128,4133,"triangle",925,65.058,4,"How well does this name fit this image?",7,"triangle.png",3,"trial_lists/trial_list_3","Female","Yes","25","bachelors",NA,NA,NA,183678,"A1KHRQ121JTDF6","3HFNH7HEMHFRPFFJXO9K1UOGZBYQGI",161,"11/22/2019 12:07:57 AM","11/22/2019 12:10:38 AM","Approved",0.3,0,0.04,"fCKeLiTie1pjM",NA,NA,NA,NA
"A1KHRQ121JTDF6","Please name this image",47.978,9322,"ninja star",1632,50.614,2,"How well does this name fit this image?",5,"VCS_30.png",3,"trial_lists/trial_list_3","Female","Yes","25","bachelors",NA,NA,NA,183678,"A1KHRQ121JTDF6","3HFNH7HEMHFRPFFJXO9K1UOGZBYQGI",161,"11/22/2019 12:07:57 AM","11/22/2019 12:10:38 AM","Approved",0.3,0,0.04,"fCKeLiTie1pjM",NA,NA,NA,NA
"A1KHRQ121JTDF6","Please name this image",56.535,5901,"speare",1438,58.977,2,"How well does this name fit this image?",6,"VCS_330.png",3,"trial_lists/trial_list_3","Female","Yes","25","bachelors",NA,NA,NA,183678,"A1KHRQ121JTDF6","3HFNH7HEMHFRPFFJXO9K1UOGZBYQGI",161,"11/22/2019 12:07:57 AM","11/22/2019 12:10:38 AM","Approved",0.3,0,0.04,"fCKeLiTie1pjM",NA,NA,NA,NA
"A1KHRQ121JTDF6","Please name this image",121.356,4906,"half square",1136,123.496,3,"How well does this name fit this image?",14,"VCS_240.png",3,"trial_lists/trial_list_3","Female","Yes","25","bachelors",NA,NA,NA,183678,"A1KHRQ121JTDF6","3HFNH7HEMHFRPFFJXO9K1UOGZBYQGI",161,"11/22/2019 12:07:57 AM","11/22/2019 12:10:38 AM","Approved",0.3,0,0.04,"fCKeLiTie1pjM",NA,NA,NA,NA
"A1KHRQ121JTDF6","Please name this image",11.666,7532,"curve",4706,17.378,3,"How well does this name fit this image?",1,"VCS_60.png",3,"trial_lists/trial_list_3","Female","Yes","25","bachelors",NA,NA,NA,183678,"A1KHRQ121JTDF6","3HFNH7HEMHFRPFFJXO9K1UOGZBYQGI",161,"11/22/2019 12:07:57 AM","11/22/2019 12:10:38 AM","Approved",0.3,0,0.04,"fCKeLiTie1pjM",NA,NA,NA,NA
"A1KHRQ121JTDF6","Please name this image",78.787,13709,"polygon",1097,80.889,2,"How well does this name fit this image?",8,"VCS_180.png",3,"trial_lists/trial_list_3","Female","Yes","25","bachelors",NA,NA,NA,183678,"A1KHRQ121JTDF6","3HFNH7HEMHFRPFFJXO9K1UOGZBYQGI",161,"11/22/2019 12:07:57 AM","11/22/2019 12:10:38 AM","Approved",0.3,0,0.04,"fCKeLiTie1pjM",NA,NA,NA,NA
"A1KHRQ121JTDF6","Please name this image",108.155,3303,"speare",1623,110.783,2,"How well does this name fit this image?",12,"VCS_300.png",3,"trial_lists/trial_list_3","Female","Yes","25","bachelors",NA,NA,NA,183678,"A1KHRQ121JTDF6","3HFNH7HEMHFRPFFJXO9K1UOGZBYQGI",161,"11/22/2019 12:07:57 AM","11/22/2019 12:10:38 AM","Approved",0.3,0,0.04,"fCKeLiTie1pjM",NA,NA,NA,NA
"A1KHRQ121JTDF6","Please name this image",21,3603,"arrow",958,22.962,3,"How well does this name fit this image?",2,"VCS_210.png",3,"trial_lists/trial_list_3","Female","Yes","25","bachelors",NA,NA,NA,183678,"A1KHRQ121JTDF6","3HFNH7HEMHFRPFFJXO9K1UOGZBYQGI",161,"11/22/2019 12:07:57 AM","11/22/2019 12:10:38 AM","Approved",0.3,0,0.04,"fCKeLiTie1pjM",NA,NA,NA,NA
"A1LIUZUJ3TM2KR","Please name this image",224.998,2692,"star",5584,231.589,2,"How well does this name fit this image?",15,"VCS_360.png",3,"trial_lists/trial_list_3","Female","Yes","39","masters","n/a",NA,NA,183678,"A1LIUZUJ3TM2KR","3G2UL9A02DFFM4LYPCRSPCUW07A766",270,"11/22/2019 12:29:59 AM","11/22/2019 12:34:29 AM","Approved",0.3,0,0.04,"owCWHiTiKOjC3",NA,NA,NA,NA
"A1LIUZUJ3TM2KR","Please name this image",218.797,4462,"oval",2495,222.298,1,"How well does this name fit this image?",14,"VCS_180.png",3,"trial_lists/trial_list_3","Female","Yes","39","masters","n/a",NA,NA,183678,"A1LIUZUJ3TM2KR","3G2UL9A02DFFM4LYPCRSPCUW07A766",270,"11/22/2019 12:29:59 AM","11/22/2019 12:34:29 AM","Approved",0.3,0,0.04,"owCWHiTiKOjC3",NA,NA,NA,NA
"A1LIUZUJ3TM2KR","Please name this image",28.397,5900,"star",3009,32.417,2,"How well does this name fit this image?",2,"VCS_300.png",3,"trial_lists/trial_list_3","Female","Yes","39","masters","n/a",NA,NA,183678,"A1LIUZUJ3TM2KR","3G2UL9A02DFFM4LYPCRSPCUW07A766",270,"11/22/2019 12:29:59 AM","11/22/2019 12:34:29 AM","Approved",0.3,0,0.04,"owCWHiTiKOjC3",NA,NA,NA,NA
"A1LIUZUJ3TM2KR","Please name this image",212.202,5389,"star",1115,214.325,2,"How well does this name fit this image?",13,"VCS_210.png",3,"trial_lists/trial_list_3","Female","Yes","39","masters","n/a",NA,NA,183678,"A1LIUZUJ3TM2KR","3G2UL9A02DFFM4LYPCRSPCUW07A766",270,"11/22/2019 12:29:59 AM","11/22/2019 12:34:29 AM","Approved",0.3,0,0.04,"owCWHiTiKOjC3",NA,NA,NA,NA
"A1LIUZUJ3TM2KR","Please name this image",187.683,7605,"oval",2572,191.261,1,"How well does this name fit this image?",10,"VCS_90.png",3,"trial_lists/trial_list_3","Female","Yes","39","masters","n/a",NA,NA,183678,"A1LIUZUJ3TM2KR","3G2UL9A02DFFM4LYPCRSPCUW07A766",270,"11/22/2019 12:29:59 AM","11/22/2019 12:34:29 AM","Approved",0.3,0,0.04,"owCWHiTiKOjC3",NA,NA,NA,NA
"A1LIUZUJ3TM2KR","Please name this image",147.008,5648,"dog",2317,150.336,4,"How well does this name fit this image?",6,"dog.png",3,"trial_lists/trial_list_3","Female","Yes","39","masters","n/a",NA,NA,183678,"A1LIUZUJ3TM2KR","3G2UL9A02DFFM4LYPCRSPCUW07A766",270,"11/22/2019 12:29:59 AM","11/22/2019 12:34:29 AM","Approved",0.3,0,0.04,"owCWHiTiKOjC3",NA,NA,NA,NA
"A1LIUZUJ3TM2KR","Please name this image",130.503,11641,"circle",2194,133.707,1,"How well does this name fit this image?",4,"VCS_120.png",3,"trial_lists/trial_list_3","Female","Yes","39","masters","n/a",NA,NA,183678,"A1LIUZUJ3TM2KR","3G2UL9A02DFFM4LYPCRSPCUW07A766",270,"11/22/2019 12:29:59 AM","11/22/2019 12:34:29 AM","Approved",0.3,0,0.04,"owCWHiTiKOjC3",NA,NA,NA,NA
"A1LIUZUJ3TM2KR","Please name this image",12.717,6136,"oval",8748,22.488,1,"How well does this name fit this image?",1,"VCS_60.png",3,"trial_lists/trial_list_3","Female","Yes","39","masters","n/a",NA,NA,183678,"A1LIUZUJ3TM2KR","3G2UL9A02DFFM4LYPCRSPCUW07A766",270,"11/22/2019 12:29:59 AM","11/22/2019 12:34:29 AM","Approved",0.3,0,0.04,"owCWHiTiKOjC3",NA,NA,NA,NA
"A1LIUZUJ3TM2KR","Please name this image",195.467,4196,"triangle",1627,198.1,4,"How well does this name fit this image?",11,"triangle.png",3,"trial_lists/trial_list_3","Female","Yes","39","masters","n/a",NA,NA,183678,"A1LIUZUJ3TM2KR","3G2UL9A02DFFM4LYPCRSPCUW07A766",270,"11/22/2019 12:29:59 AM","11/22/2019 12:34:29 AM","Approved",0.3,0,0.04,"owCWHiTiKOjC3",NA,NA,NA,NA
"A1LIUZUJ3TM2KR","Please name this image",138.08,4366,"oval",2267,141.355,1,"How well does this name fit this image?",5,"VCS_30.png",3,"trial_lists/trial_list_3","Female","Yes","39","masters","n/a",NA,NA,183678,"A1LIUZUJ3TM2KR","3G2UL9A02DFFM4LYPCRSPCUW07A766",270,"11/22/2019 12:29:59 AM","11/22/2019 12:34:29 AM","Approved",0.3,0,0.04,"owCWHiTiKOjC3",NA,NA,NA,NA
"A1LIUZUJ3TM2KR","Please name this image",176.087,5981,"square",2969,180.067,4,"How well does this name fit this image?",9,"square.png",3,"trial_lists/trial_list_3","Female","Yes","39","masters","n/a",NA,NA,183678,"A1LIUZUJ3TM2KR","3G2UL9A02DFFM4LYPCRSPCUW07A766",270,"11/22/2019 12:29:59 AM","11/22/2019 12:34:29 AM","Approved",0.3,0,0.04,"owCWHiTiKOjC3",NA,NA,NA,NA
"A1LIUZUJ3TM2KR","Please name this image",202.435,4330,"jar",3363,206.805,2,"How well does this name fit this image?",12,"VCS_150.png",3,"trial_lists/trial_list_3","Female","Yes","39","masters","n/a",NA,NA,183678,"A1LIUZUJ3TM2KR","3G2UL9A02DFFM4LYPCRSPCUW07A766",270,"11/22/2019 12:29:59 AM","11/22/2019 12:34:29 AM","Approved",0.3,0,0.04,"owCWHiTiKOjC3",NA,NA,NA,NA
"A1LIUZUJ3TM2KR","Please name this image",111.845,79420,"star",5997,118.85,3,"How well does this name fit this image?",3,"VCS_330.png",3,"trial_lists/trial_list_3","Female","Yes","39","masters","n/a",NA,NA,183678,"A1LIUZUJ3TM2KR","3G2UL9A02DFFM4LYPCRSPCUW07A766",270,"11/22/2019 12:29:59 AM","11/22/2019 12:34:29 AM","Approved",0.3,0,0.04,"owCWHiTiKOjC3",NA,NA,NA,NA
"A1LIUZUJ3TM2KR","Please name this image",167.561,4612,"star",1528,170.097,3,"How well does this name fit this image?",8,"VCS_240.png",3,"trial_lists/trial_list_3","Female","Yes","39","masters","n/a",NA,NA,183678,"A1LIUZUJ3TM2KR","3G2UL9A02DFFM4LYPCRSPCUW07A766",270,"11/22/2019 12:29:59 AM","11/22/2019 12:34:29 AM","Approved",0.3,0,0.04,"owCWHiTiKOjC3",NA,NA,NA,NA
"A1LIUZUJ3TM2KR","Please name this image",159.018,8672,"crown",2917,162.943,3,"How well does this name fit this image?",7,"VCS_270.png",3,"trial_lists/trial_list_3","Female","Yes","39","masters","n/a",NA,NA,183678,"A1LIUZUJ3TM2KR","3G2UL9A02DFFM4LYPCRSPCUW07A766",270,"11/22/2019 12:29:59 AM","11/22/2019 12:34:29 AM","Approved",0.3,0,0.04,"owCWHiTiKOjC3",NA,NA,NA,NA
"A1LW4CR8FID1V1","Please name this image",162.821,5477,"fat plate",923,164.747,2,"How well does this name fit this image?",13,"VCS_160.png",1,"trial_lists/trial_list_1","Male","Yes","35","bachelors","None",NA,NA,183678,"A1LW4CR8FID1V1","32N49TQG3GJIKWYXXNBKBVCLI8ZVA4",220,"11/22/2019 12:04:39 AM","11/22/2019 12:08:19 AM","Approved",0.3,0,0.04,"GfmQNiTibvQgW",NA,NA,NA,NA
"A1LW4CR8FID1V1","Please name this image",124.968,6169,"star square",984,126.956,2,"How well does this name fit this image?",9,"VCS_250.png",1,"trial_lists/trial_list_1","Male","Yes","35","bachelors","None",NA,NA,183678,"A1LW4CR8FID1V1","32N49TQG3GJIKWYXXNBKBVCLI8ZVA4",220,"11/22/2019 12:04:39 AM","11/22/2019 12:08:19 AM","Approved",0.3,0,0.04,"GfmQNiTibvQgW",NA,NA,NA,NA
"A1LW4CR8FID1V1","Please name this image",106.512,4523,"jack",1133,108.661,2,"How well does this name fit this image?",7,"VCS_340.png",1,"trial_lists/trial_list_1","Male","Yes","35","bachelors","None",NA,NA,183678,"A1LW4CR8FID1V1","32N49TQG3GJIKWYXXNBKBVCLI8ZVA4",220,"11/22/2019 12:04:39 AM","11/22/2019 12:08:19 AM","Approved",0.3,0,0.04,"GfmQNiTibvQgW",NA,NA,NA,NA
"A1LW4CR8FID1V1","Please name this image",84.567,8163,"star square",1004,86.58,1,"How well does this name fit this image?",4,"VCS_220.png",1,"trial_lists/trial_list_1","Male","Yes","35","bachelors","None",NA,NA,183678,"A1LW4CR8FID1V1","32N49TQG3GJIKWYXXNBKBVCLI8ZVA4",220,"11/22/2019 12:04:39 AM","11/22/2019 12:08:19 AM","Approved",0.3,0,0.04,"GfmQNiTibvQgW",NA,NA,NA,NA
"A1LW4CR8FID1V1","Please name this image",177.538,4746,"star thing",745,179.292,2,"How well does this name fit this image?",15,"VCS_280.png",1,"trial_lists/trial_list_1","Male","Yes","35","bachelors","None",NA,NA,183678,"A1LW4CR8FID1V1","32N49TQG3GJIKWYXXNBKBVCLI8ZVA4",220,"11/22/2019 12:04:39 AM","11/22/2019 12:08:19 AM","Approved",0.3,0,0.04,"GfmQNiTibvQgW",NA,NA,NA,NA
"A1LW4CR8FID1V1","Please name this image",116.416,7752,"flat star",1375,118.796,2,"How well does this name fit this image?",8,"VCS_310.png",1,"trial_lists/trial_list_1","Male","Yes","35","bachelors","None",NA,NA,183678,"A1LW4CR8FID1V1","32N49TQG3GJIKWYXXNBKBVCLI8ZVA4",220,"11/22/2019 12:04:39 AM","11/22/2019 12:08:19 AM","Approved",0.3,0,0.04,"GfmQNiTibvQgW",NA,NA,NA,NA
"A1LW4CR8FID1V1","Please name this image",48.631,12939,"shepard dog",4146,53.782,3,"How well does this name fit this image?",1,"dog.png",1,"trial_lists/trial_list_1","Male","Yes","35","bachelors","None",NA,NA,183678,"A1LW4CR8FID1V1","32N49TQG3GJIKWYXXNBKBVCLI8ZVA4",220,"11/22/2019 12:04:39 AM","11/22/2019 12:08:19 AM","Approved",0.3,0,0.04,"GfmQNiTibvQgW",NA,NA,NA,NA
