"subjCode","naming_question","naming_expTimer","naming_rt","nameing_response","goodness_of_fit_rt","goodness_of_fit_expTimer","goodness_of_fit","confidence_question","trial_number","image","trial_list_num","batchFile"
"03UnW",".ุงูุฑุฌุงุก ุชุณููุฉ ูุฐู ุงูุตูุฑุฉ",32.119,10550,"ูุซูุซ",12964,46.102,4,"ูุง ูุฏู ุชุทุงุจู ูุฐุง ุงูุงุณู ูุน ูุฐู ุงูุตูุฑุฉุ",1,"triangle.png",3,"trial_lists/trial_list_3"
"08jRx",".ุงูุฑุฌุงุก ุชุณููุฉ ูุฐู ุงูุตูุฑุฉ",72.505,35069,"ูุฌูุฉ",10795,84.316,2,"ูุง ูุฏู ุชุทุงุจู ูุฐุง ุงูุงุณู ูุน ูุฐู ุงูุตูุฑุฉุ",1,"VCS_250.png",1,"trial_lists/trial_list_1"
"08jRx",".ุงูุฑุฌุงุก ุชุณููุฉ ูุฐู ุงูุตูุฑุฉ",124.097,39740,"ุฏุฑุน",5313,130.42,1,"ูุง ูุฏู ุชุทุงุจู ูุฐุง ุงูุงุณู ูุน ูุฐู ุงูุตูุฑุฉุ",2,"VCS_190.png",1,"trial_lists/trial_list_1"
"08jRx",".ุงูุฑุฌุงุก ุชุณููุฉ ูุฐู ุงูุตูุฑุฉ",148.028,17580,"ุฐุฆุจ",2664,151.702,3,"ูุง ูุฏู ุชุทุงุจู ูุฐุง ุงูุงุณู ูุน ูุฐู ุงูุตูุฑุฉุ",3,"dog.png",1,"trial_lists/trial_list_1"
"0DZfn",".ุงูุฑุฌุงุก ุชุณููุฉ ูุฐู ุงูุตูุฑุฉ",31.113,12309,"ูุฑุต",12624,44.751,1,"ูุง ูุฏู ุชุทุงุจู ูุฐุง ุงูุงุณู ูุน ูุฐู ุงูุตูุฑุฉุ",1,"VCS_20.png",2,"trial_lists/trial_list_2"
"0HWJr",".ุงูุฑุฌุงุก ุชุณููุฉ ูุฐู ุงูุตูุฑุฉ",69.217,33227,"ูุงุจ ุชุฎุฑุฌ",26190,96.448,4,"ูุง ูุฏู ุชุทุงุจู ูุฐุง ุงูุงุณู ูุน ูุฐู ุงูุตูุฑุฉุ",1,"VCS_270.png",3,"trial_lists/trial_list_3"
"0Ia4G",".ุงูุฑุฌุงุก ุชุณููุฉ ูุฐู ุงูุตูุฑุฉ",25.039,10316,"ูุฌูู",12246,38.305,2,"ูุง ูุฏู ุชุทุงุจู ูุฐุง ุงูุงุณู ูุน ูุฐู ุงูุตูุฑุฉุ",1,"VCS_20.png",2,"trial_lists/trial_list_2"
"0Ia4G",".ุงูุฑุฌุงุก ุชุณููุฉ ูุฐู ุงูุตูุฑุฉ",47.104,8753,"ุชุงุฌ",3011,51.135,3,"ูุง ูุฏู ุชุทุงุจู ูุฐุง ุงูุงุณู ูุน ูุฐู ุงูุตูุฑุฉุ",2,"VCS_290.png",2,"trial_lists/trial_list_2"
"0Ia4G",".ุงูุฑุฌุงุก ุชุณููุฉ ูุฐู ุงูุตูุฑุฉ",71.216,20039,"ูุดุฏ",5715,77.953,4,"ูุง ูุฏู ุชุทุงุจู ูุฐุง ุงูุงุณู ูุน ูุฐู ุงูุตูุฑุฉุ",3,"VCS_110.png",2,"trial_lists/trial_list_2"
"0Ia4G",".ุงูุฑุฌุงุก ุชุณููุฉ ูุฐู ุงูุตูุฑุฉ",83.245,5252,"ูุฌูู",1153,85.42,4,"ูุง ูุฏู ุชุทุงุจู ูุฐุง ุงูุงุณู ูุน ูุฐู ุงูุตูุฑุฉุ",4,"VCS_350.png",2,"trial_lists/trial_list_2"
"0Ia4G",".ุงูุฑุฌุงุก ุชุณููุฉ ูุฐู ุงูุตูุฑุฉ",91.137,5672,"ุฏุฑุน",2636,94.797,2,"ูุง ูุฏู ุชุทุงุจู ูุฐุง ุงูุงุณู ูุน ูุฐู ุงูุตูุฑุฉุ",5,"VCS_170.png",2,"trial_lists/trial_list_2"
"0IhqR",".ุงูุฑุฌุงุก ุชุณููุฉ ูุฐู ุงูุตูุฑุฉ",58.607,23664,"ูุดุจู ุงูุงุณูุงู",18696,78.312,3,"ูุง ูุฏู ุชุทุงุจู ูุฐุง ุงูุงุณู ูุน ูุฐู ุงูุตูุฑุฉุ",1,"VCS_80.png",2,"trial_lists/trial_list_2"
"0IhqR",".ุงูุฑุฌุงุก ุชุณููุฉ ูุฐู ุงูุตูุฑุฉ",85.189,6853,"ูุซูุซ",4433,90.632,4,"ูุง ูุฏู ุชุทุงุจู ูุฐุง ุงูุงุณู ูุน ูุฐู ุงูุตูุฑุฉุ",2,"triangle.png",2,"trial_lists/trial_list_2"
"0jSHi",".ุงูุฑุฌุงุก ุชุณููุฉ ูุฐู ุงูุตูุฑุฉ",15.968,11580,"ุดุงุฑุฉ",2227,19.222,2,"ูุง ูุฏู ุชุทุงุจู ูุฐุง ุงูุงุณู ูุน ูุฐู ุงูุตูุฑุฉุ",1,"VCS_220.png",1,"trial_lists/trial_list_1"
"0jSHi",".ุงูุฑุฌุงุก ุชุณููุฉ ูุฐู ุงูุตูุฑุฉ",46.972,27723,"ุถุฑูุญ",5843,53.837,1,"ูุง ูุฏู ุชุทุงุจู ูุฐุง ุงูุงุณู ูุน ูุฐู ุงูุตูุฑุฉุ",2,"VCS_280.png",1,"trial_lists/trial_list_1"
"0lxtc",".ุงูุฑุฌุงุก ุชุณููุฉ ูุฐู ุงูุตูุฑุฉ",20.45,13848,"ูุฌูุฉ ูุฑุจุนุฉ",18370,39.845,2,"ูุง ูุฏู ุชุทุงุจู ูุฐุง ุงูุงุณู ูุน ูุฐู ุงูุตูุฑุฉุ",1,"VCS_280.png",1,"trial_lists/trial_list_1"
"0lxtc",".ุงูุฑุฌุงุก ุชุณููุฉ ูุฐู ุงูุตูุฑุฉ",46.303,6405,"ุน",1207,48.533,2,"ูุง ูุฏู ุชุทุงุจู ูุฐุง ุงูุงุณู ูุน ูุฐู ุงูุตูุฑุฉุ",2,"VCS_190.png",1,"trial_lists/trial_list_1"
"0QCGR",".ุงูุฑุฌุงุก ุชุณููุฉ ูุฐู ุงูุตูุฑุฉ",26.928,19370,"ูุงูู ุตูุฑุฉ ุงุตูุง",9523,37.461,1,"ูุง ูุฏู ุชุทุงุจู ูุฐุง ุงูุงุณู ูุน ูุฐู ุงูุตูุฑุฉุ",1,"square.png",2,"trial_lists/trial_list_2"
"0QCGR",".ุงูุฑุฌุงุก ุชุณููุฉ ูุฐู ุงูุตูุฑุฉ",47.97,10487,"ุดุจู ุงููุฌู",4719,53.695,2,"ูุง ูุฏู ุชุทุงุจู ูุฐุง ุงูุงุณู ูุน ูุฐู ุงูุตูุฑุฉุ",2,"VCS_320.png",2,"trial_lists/trial_list_2"
"0QCGR",".ุงูุฑุฌุงุก ุชุณููุฉ ูุฐู ุงูุตูุฑุฉ",74.101,20395,"ูุดุจู ุฌุณู ุงูููุซูุงุช ููุฑูู๐๐๐",1412,76.522,4,"ูุง ูุฏู ุชุทุงุจู ูุฐุง ุงูุงุณู ูุน ูุฐู ุงูุตูุฑุฉุ",3,"VCS_170.png",2,"trial_lists/trial_list_2"
"0qO5x",".ุงูุฑุฌุงุก ุชุณููุฉ ูุฐู ุงูุตูุฑุฉ",77.966,10780,"ูุซูู",35075,114.072,3,"ูุง ูุฏู ุชุทุงุจู ูุฐุง ุงูุงุณู ูุน ูุฐู ุงูุตูุฑุฉุ",1,"triangle.png",3,"trial_lists/trial_list_3"
"0qO5x",".ุงูุฑุฌุงุก ุชุณููุฉ ูุฐู ุงูุตูุฑุฉ",139.259,25133,"ูุชุงูุฉ",4874,145.171,4,"ูุง ูุฏู ุชุทุงุจู ูุฐุง ุงูุงุณู ูุน ูุฐู ุงูุตูุฑุฉุ",2,"VCS_60.png",3,"trial_lists/trial_list_3"
"0qO5x",".ุงูุฑุฌุงุก ุชุณููุฉ ูุฐู ุงูุตูุฑุฉ",151.104,5889,"ูุฑุจุน",1314,153.441,4,"ูุง ูุฏู ุชุทุงุจู ูุฐุง ุงูุงุณู ูุน ูุฐู ุงูุตูุฑุฉุ",3,"square.png",3,"trial_lists/trial_list_3"
"0qO5x",".ุงูุฑุฌุงุก ุชุณููุฉ ูุฐู ุงูุตูุฑุฉ",163.336,9852,"ุฎูุงุณู",1152,165.511,4,"ูุง ูุฏู ุชุทุงุจู ูุฐุง ุงูุงุณู ูุน ูุฐู ุงูุตูุฑุฉุ",4,"VCS_240.png",3,"trial_lists/trial_list_3"
"0qO5x",".ุงูุฑุฌุงุก ุชุณููุฉ ูุฐู ุงูุตูุฑุฉ",179.552,13997,"ุนุดุงุฑู",1125,181.702,4,"ูุง ูุฏู ุชุทุงุจู ูุฐุง ุงูุงุณู ูุน ูุฐู ุงูุตูุฑุฉุ",5,"VCS_300.png",3,"trial_lists/trial_list_3"
"0qO5x",".ุงูุฑุฌุงุก ุชุณููุฉ ูุฐู ุงูุตูุฑุฉ",189.455,7711,"ุฐุฆุจ",3103,193.582,4,"ูุง ูุฏู ุชุทุงุจู ูุฐุง ุงูุงุณู ูุน ูุฐู ุงูุตูุฑุฉุ",6,"dog.png",3,"trial_lists/trial_list_3"
"0qO5x",".ุงูุฑุฌุงุก ุชุณููุฉ ูุฐู ุงูุตูุฑุฉ",199.41,5794,"ุฌุฑู",1283,201.71,3,"ูุง ูุฏู ุชุทุงุจู ูุฐุง ุงูุงุณู ูุน ูุฐู ุงูุตูุฑุฉุ",7,"VCS_150.png",3,"trial_lists/trial_list_3"
"0qO5x",".ุงูุฑุฌุงุก ุชุณููุฉ ูุฐู ุงูุตูุฑุฉ",240.814,39064,"ุญุงูู ุงุทูุงู",1274,243.103,2,"ูุง ูุฏู ุชุทุงุจู ูุฐุง ุงูุงุณู ูุน ูุฐู ุงูุตูุฑุฉุ",8,"VCS_120.png",3,"trial_lists/trial_list_3"
"0qO5x",".ุงูุฑุฌุงุก ุชุณููุฉ ูุฐู ุงูุตูุฑุฉ",255.122,11970,"ุชุณุงุนู",1055,257.195,4,"ูุง ูุฏู ุชุทุงุจู ูุฐุง ุงูุงุณู ูุน ูุฐู ุงูุตูุฑุฉุ",9,"VCS_270.png",3,"trial_lists/trial_list_3"
"0qO5x",".ุงูุฑุฌุงุก ุชุณููุฉ ูุฐู ุงูุตูุฑุฉ",264.006,6768,"ูุฌู",1025,266.045,3,"ูุง ูุฏู ุชุทุงุจู ูุฐุง ุงูุงุณู ูุน ูุฐู ุงูุตูุฑุฉุ",10,"VCS_330.png",3,"trial_lists/trial_list_3"
"0qO5x",".ุงูุฑุฌุงุก ุชุณููุฉ ูุฐู ุงูุตูุฑุฉ",281.74,15655,"ุฌุฑู ุฎุฒููู",2297,285.06,2,"ูุง ูุฏู ุชุทุงุจู ูุฐุง ุงูุงุณู ูุน ูุฐู ุงูุตูุฑุฉุ",11,"VCS_90.png",3,"trial_lists/trial_list_3"
"0qO5x",".ุงูุฑุฌุงุก ุชุณููุฉ ูุฐู ุงูุตูุฑุฉ",291.673,6568,"ูุงุธู",1623,294.323,3,"ูุง ูุฏู ุชุทุงุจู ูุฐุง ุงูุงุณู ูุน ูุฐู ุงูุตูุฑุฉุ",12,"VCS_180.png",3,"trial_lists/trial_list_3"
"0qO5x",".ุงูุฑุฌุงุก ุชุณููุฉ ูุฐู ุงูุตูุฑุฉ",300.858,6494,"ุฑุจุงุนู",1201,303.073,3,"ูุง ูุฏู ุชุทุงุจู ูุฐุง ุงูุงุณู ูุน ูุฐู ุงูุตูุฑุฉุ",13,"VCS_360.png",3,"trial_lists/trial_list_3"
"0qO5x",".ุงูุฑุฌุงุก ุชุณููุฉ ูุฐู ุงูุตูุฑุฉ",324.741,21643,"ุซูุงุซู",4053,329.823,3,"ูุง ูุฏู ุชุทุงุจู ูุฐุง ุงูุงุณู ูุน ูุฐู ุงูุตูุฑุฉุ",14,"VCS_210.png",3,"trial_lists/trial_list_3"
"0qO5x",".ุงูุฑุฌุงุก ุชุณููุฉ ูุฐู ุงูุตูุฑุฉ",340.932,11061,"ุฑุจุงุนู",1483,343.445,3,"ูุง ูุฏู ุชุทุงุจู ูุฐุง ุงูุงุณู ูุน ูุฐู ุงูุตูุฑุฉุ",15,"VCS_30.png",3,"trial_lists/trial_list_3"
"0TgO1",".ุงูุฑุฌุงุก ุชุณููุฉ ูุฐู ุงูุตูุฑุฉ",27.602,16680,"ูุฌูู",14640,43.251,3,"ูุง ูุฏู ุชุทุงุจู ูุฐุง ุงูุงุณู ูุน ูุฐู ุงูุตูุฑุฉุ",1,"VCS_240.png",3,"trial_lists/trial_list_3"
"0TgO1",".ุงูุฑุฌุงุก ุชุณููุฉ ูุฐู ุงูุตูุฑุฉ",53.944,10671,"ููุจ",3698,58.647,2,"ูุง ูุฏู ุชุทุงุจู ูุฐุง ุงูุงุณู ูุน ูุฐู ุงูุตูุฑุฉุ",2,"dog.png",3,"trial_lists/trial_list_3"
"0TgO1",".ุงูุฑุฌุงุก ุชุณููุฉ ูุฐู ุงูุตูุฑุฉ",78.104,19437,"ุดุจู ูุฌูู",5225,84.335,3,"ูุง ูุฏู ุชุทุงุจู ูุฐุง ุงูุงุณู ูุน ูุฐู ุงูุตูุฑุฉุ",3,"VCS_330.png",3,"trial_lists/trial_list_3"
"0TgO1",".ุงูุฑุฌุงุก ุชุณููุฉ ูุฐู ุงูุตูุฑุฉ",96.716,12361,"ูุฌูู ุงูุจุญุฑ",6178,103.898,3,"ูุง ูุฏู ุชุทุงุจู ูุฐุง ุงูุงุณู ูุน ูุฐู ุงูุตูุฑุฉุ",4,"VCS_360.png",3,"trial_lists/trial_list_3"
"0TgO1",".ุงูุฑุฌุงุก ุชุณููุฉ ูุฐู ุงูุตูุฑุฉ",111.165,7246,"ูุซูุซ",1914,114.083,2,"ูุง ูุฏู ุชุทุงุจู ูุฐุง ุงูุงุณู ูุน ูุฐู ุงูุตูุฑุฉุ",5,"triangle.png",3,"trial_lists/trial_list_3"
"0TgO1",".ุงูุฑุฌุงุก ุชุณููุฉ ูุฐู ุงูุตูุฑุฉ",119.774,5670,"ูุฌู",5316,126.094,1,"ูุง ูุฏู ุชุทุงุจู ูุฐุง ุงูุงุณู ูุน ูุฐู ุงูุตูุฑุฉุ",6,"VCS_180.png",3,"trial_lists/trial_list_3"
"0TgO1",".ุงูุฑุฌุงุก ุชุณููุฉ ูุฐู ุงูุตูุฑุฉ",134.238,8124,"ุตุฎุฑู",1963,137.205,3,"ูุง ูุฏู ุชุทุงุจู ูุฐุง ุงูุงุณู ูุน ูุฐู ุงูุตูุฑุฉุ",7,"VCS_210.png",3,"trial_lists/trial_list_3"
"0TgO1",".ุงูุฑุฌุงุก ุชุณููุฉ ูุฐู ุงูุตูุฑุฉ",143.021,5795,"ูุฑุจุน",6478,150.504,2,"ูุง ูุฏู ุชุทุงุจู ูุฐุง ุงูุงุณู ูุน ูุฐู ุงูุตูุฑุฉุ",8,"square.png",3,"trial_lists/trial_list_3"
"0TgO1",".ุงูุฑุฌุงุก ุชุณููุฉ ูุฐู ุงูุตูุฑุฉ",161.276,10752,"ุดุจู ูุฌูู",1823,164.103,2,"ูุง ูุฏู ุชุทุงุจู ูุฐุง ุงูุงุณู ูุน ูุฐู ุงูุตูุฑุฉุ",9,"VCS_270.png",3,"trial_lists/trial_list_3"
"0TgO1",".ุงูุฑุฌุงุก ุชุณููุฉ ูุฐู ุงูุตูุฑุฉ",172.136,8012,"ูุฌูู ุงูุจุญุฑ",1579,174.72,2,"ูุง ูุฏู ุชุทุงุจู ูุฐุง ุงูุงุณู ูุน ูุฐู ุงูุตูุฑุฉุ",10,"VCS_30.png",3,"trial_lists/trial_list_3"
"0TgO1",".ุงูุฑุฌุงุก ุชุณููุฉ ูุฐู ุงูุตูุฑุฉ",189.467,14727,"ูุฌู ูุงุฑุบ",2634,193.106,2,"ูุง ูุฏู ุชุทุงุจู ูุฐุง ุงูุงุณู ูุน ูุฐู ุงูุตูุฑุฉุ",11,"VCS_150.png",3,"trial_lists/trial_list_3"
"0TgO1",".ุงูุฑุฌุงุก ุชุณููุฉ ูุฐู ุงูุตูุฑุฉ",202.872,9746,"ุดูู",3304,207.181,2,"ูุง ูุฏู ุชุทุงุจู ูุฐุง ุงูุงุณู ูุน ูุฐู ุงูุตูุฑุฉุ",12,"VCS_60.png",3,"trial_lists/trial_list_3"
"0TgO1",".ุงูุฑุฌุงุก ุชุณููุฉ ูุฐู ุงูุตูุฑุฉ",225.269,18067,"ุดูู",1759,228.032,4,"ูุง ูุฏู ุชุทุงุจู ูุฐุง ุงูุงุณู ูุน ูุฐู ุงูุตูุฑุฉุ",13,"VCS_90.png",3,"trial_lists/trial_list_3"
"0TgO1",".ุงูุฑุฌุงุก ุชุณููุฉ ูุฐู ุงูุตูุฑุฉ",239.606,11554,"ุดูู ุบูุฑ ููููู",1940,242.55,2,"ูุง ูุฏู ุชุทุงุจู ูุฐุง ุงูุงุณู ูุน ูุฐู ุงูุตูุฑุฉุ",14,"VCS_120.png",3,"trial_lists/trial_list_3"
"0TgO1",".ุงูุฑุฌุงุก ุชุณููุฉ ูุฐู ุงูุตูุฑุฉ",252.268,9697,"ุนูุงูู",1389,254.662,2,"ูุง ูุฏู ุชุทุงุจู ูุฐุง ุงูุงุณู ูุน ูุฐู ุงูุตูุฑุฉุ",15,"VCS_300.png",3,"trial_lists/trial_list_3"
"0TU6H",".ุงูุฑุฌุงุก ุชุณููุฉ ูุฐู ุงูุตูุฑุฉ",32.477,14016,"ูุฌูู",9416,42.928,2,"ูุง ูุฏู ุชุทุงุจู ูุฐุง ุงูุงุณู ูุน ูุฐู ุงูุตูุฑุฉุ",1,"VCS_280.png",1,"trial_lists/trial_list_1"
"0TU6H",".ุงูุฑุฌุงุก ุชุณููุฉ ูุฐู ุงูุตูุฑุฉ",50.561,7587,"ูุซูุซ",2018,53.606,3,"ูุง ูุฏู ุชุทุงุจู ูุฐุง ุงูุงุณู ูุน ูุฐู ุงูุตูุฑุฉุ",2,"triangle.png",1,"trial_lists/trial_list_1"
"0TU6H",".ุงูุฑุฌุงุก ุชุณููุฉ ูุฐู ุงูุตูุฑุฉ",61.338,7686,"ููุจ",2696,65.06,4,"ูุง ูุฏู ุชุทุงุจู ูุฐุง ุงูุงุณู ูุน ูุฐู ุงูุตูุฑุฉุ",3,"dog.png",1,"trial_lists/trial_list_1"
"0TU6H",".ุงูุฑุฌุงุก ุชุณููุฉ ูุฐู ุงูุตูุฑุฉ",74.442,9338,"ุดูู ุบุฑูุจ",3788,79.255,1,"ูุง ูุฏู ุชุทุงุจู ูุฐุง ุงูุงุณู ูุน ูุฐู ุงูุตูุฑุฉุ",4,"VCS_130.png",1,"trial_lists/trial_list_1"
"0TU6H",".ุงูุฑุฌุงุก ุชุณููุฉ ูุฐู ุงูุตูุฑุฉ",101.807,22507,"ูุดุจู ุดูู ุงููุฌูู ูู ุงููุถุงุก",2281,105.116,1,"ูุง ูุฏู ุชุทุงุจู ูุฐุง ุงูุงุณู ูุน ูุฐู ุงูุตูุฑุฉุ",5,"VCS_10.png",1,"trial_lists/trial_list_1"
"0TU6H",".ุงูุฑุฌุงุก ุชุณููุฉ ูุฐู ุงูุตูุฑุฉ",111.615,6453,"ูุฌูู",5845,118.484,2,"ูุง ูุฏู ุชุทุงุจู ูุฐุง ุงูุงุณู ูุน ูุฐู ุงูุตูุฑุฉุ",6,"VCS_250.png",1,"trial_lists/trial_list_1"
"0TU6H",".ุงูุฑุฌุงุก ุชุณููุฉ ูุฐู ุงูุตูุฑุฉ",124.936,6410,"ุดูู ุบุฑูุจ",2261,128.22,1,"ูุง ูุฏู ุชุทุงุจู ูุฐุง ุงูุงุณู ูุน ูุฐู ุงูุตูุฑุฉุ",7,"VCS_160.png",1,"trial_lists/trial_list_1"
"0TU6H",".ุงูุฑุฌุงุก ุชุณููุฉ ูุฐู ุงูุตูุฑุฉ",158.736,30467,"ูุงูููุงู ููุฌุฒุก ุงูุนููู ููุณูุฏุงุช",3025,162.783,2,"ูุง ูุฏู ุชุทุงุจู ูุฐุง ุงูุงุณู ูุน ูุฐู ุงูุตูุฑุฉุ",8,"VCS_100.png",1,"trial_lists/trial_list_1"
"0TU6H",".ุงูุฑุฌุงุก ุชุณููุฉ ูุฐู ุงูุตูุฑุฉ",173.005,10158,"ุดูู ุนุดูุงุฆู",2277,176.309,1,"ูุง ูุฏู ุชุทุงุจู ูุฐุง ุงูุงุณู ูุน ูุฐู ุงูุตูุฑุฉุ",9,"VCS_70.png",1,"trial_lists/trial_list_1"
"0TU6H",".ุงูุฑุฌุงุก ุชุณููุฉ ูุฐู ุงูุตูุฑุฉ",184.758,8405,"ุดุงุฑู ุดุฑุทู",1325,187.11,2,"ูุง ูุฏู ุชุทุงุจู ูุฐุง ุงูุงุณู ูุน ูุฐู ุงูุตูุฑุฉุ",10,"VCS_310.png",1,"trial_lists/trial_list_1"
"0TU6H",".ุงูุฑุฌุงุก ุชุณููุฉ ูุฐู ุงูุตูุฑุฉ",196.036,8869,"ุดูู ููุฏุณู",1356,198.416,2,"ูุง ูุฏู ุชุทุงุจู ูุฐุง ุงูุงุณู ูุน ูุฐู ุงูุตูุฑุฉุ",11,"VCS_220.png",1,"trial_lists/trial_list_1"
"0TU6H",".ุงูุฑุฌุงุก ุชุณููุฉ ูุฐู ุงูุตูุฑุฉ",205.444,6991,"ูุฑุจุน",2688,209.159,2,"ูุง ูุฏู ุชุทุงุจู ูุฐุง ุงูุงุณู ูุน ูุฐู ุงูุตูุฑุฉุ",12,"square.png",1,"trial_lists/trial_list_1"
"0TU6H",".ุงูุฑุฌุงุก ุชุณููุฉ ูุฐู ุงูุตูุฑุฉ",215.67,6469,"ุดุงุฑู ุดุฑุทู",1625,218.317,1,"ูุง ูุฏู ุชุทุงุจู ูุฐุง ุงูุงุณู ูุน ูุฐู ุงูุตูุฑุฉุ",13,"VCS_190.png",1,"trial_lists/trial_list_1"
"0TU6H",".ุงูุฑุฌุงุก ุชุณููุฉ ูุฐู ุงูุตูุฑุฉ",223.406,5045,"ูุง ุงุนุฑู",1214,225.647,1,"ูุง ูุฏู ุชุทุงุจู ูุฐุง ุงูุงุณู ูุน ูุฐู ุงูุตูุฑุฉุ",14,"VCS_40.png",1,"trial_lists/trial_list_1"
"0TU6H",".ุงูุฑุฌุงุก ุชุณููุฉ ูุฐู ุงูุตูุฑุฉ",241.013,15325,"ููุน ูู ุงููุงุน ุงูุดุงุฑุงุช",1987,244.031,2,"ูุง ูุฏู ุชุทุงุจู ูุฐุง ุงูุงุณู ูุน ูุฐู ุงูุตูุฑุฉุ",15,"VCS_340.png",1,"trial_lists/trial_list_1"
"0VIGE",".ุงูุฑุฌุงุก ุชุณููุฉ ูุฐู ุงูุตูุฑุฉ",36.886,10501,"ูุฎูุณ",6612,44.509,4,"ูุง ูุฏู ุชุทุงุจู ูุฐุง ุงูุงุณู ูุน ูุฐู ุงูุตูุฑุฉุ",1,"VCS_220.png",1,"trial_lists/trial_list_1"
"0VIGE",".ุงูุฑุฌุงุก ุชุณููุฉ ูุฐู ุงูุตูุฑุฉ",51.099,6557,"ููุงูู",6792,58.896,4,"ูุง ูุฏู ุชุทุงุจู ูุฐุง ุงูุงุณู ูุน ูุฐู ุงูุตูุฑุฉุ",2,"VCS_70.png",1,"trial_lists/trial_list_1"
"0VIGE",".ุงูุฑุฌุงุก ุชุณููุฉ ูุฐู ุงูุตูุฑุฉ",64.68,5752,"ูุฌูุฉ",5961,71.647,3,"ูุง ูุฏู ุชุทุงุจู ูุฐุง ุงูุงุณู ูุน ูุฐู ุงูุตูุฑุฉุ",3,"VCS_10.png",1,"trial_lists/trial_list_1"
"0VIGE",".ุงูุฑุฌุงุก ุชุณููุฉ ูุฐู ุงูุตูุฑุฉ",76.134,4455,"ูุฑุจุน",1542,78.68,4,"ูุง ูุฏู ุชุทุงุจู ูุฐุง ุงูุงุณู ูุน ูุฐู ุงูุตูุฑุฉุ",4,"square.png",1,"trial_lists/trial_list_1"
"0VIGE",".ุงูุฑุฌุงุก ุชุณููุฉ ูุฐู ุงูุตูุฑุฉ",85.127,6417,"ูุฌูุฉ",1914,88.047,3,"ูุง ูุฏู ุชุทุงุจู ูุฐุง ุงูุงุณู ูุน ูุฐู ุงูุตูุฑุฉุ",5,"VCS_340.png",1,"trial_lists/trial_list_1"
"0VIGE",".ุงูุฑุฌุงุก ุชุณููุฉ ูุฐู ุงูุตูุฑุฉ",92.839,4760,"ุฌุฑุฉ",3251,97.096,3,"ูุง ูุฏู ุชุทุงุจู ูุฐุง ุงูุงุณู ูุน ูุฐู ุงูุตูุฑุฉุ",6,"VCS_160.png",1,"trial_lists/trial_list_1"
"0VIGE",".ุงูุฑุฌุงุก ุชุณููุฉ ูุฐู ุงูุตูุฑุฉ",104.302,7174,"ูุนุงุก",7039,112.346,2,"ูุง ูุฏู ุชุทุงุจู ูุฐุง ุงูุงุณู ูุน ูุฐู ุงูุตูุฑุฉุ",7,"VCS_190.png",1,"trial_lists/trial_list_1"
"0VIGE",".ุงูุฑุฌุงุก ุชุณููุฉ ูุฐู ุงูุตูุฑุฉ",119.963,7585,"ูุฌูุฉ ูุดููุฉ",2901,123.869,2,"ูุง ูุฏู ุชุทุงุจู ูุฐุง ุงูุงุณู ูุน ูุฐู ุงูุตูุฑุฉุ",8,"VCS_310.png",1,"trial_lists/trial_list_1"
"0VIGE",".ุงูุฑุฌุงุก ุชุณููุฉ ูุฐู ุงูุตูุฑุฉ",129.573,5671,"ูุซูุซ",1657,132.234,3,"ูุง ูุฏู ุชุทุงุจู ูุฐุง ุงูุงุณู ูุน ูุฐู ุงูุตูุฑุฉุ",9,"triangle.png",1,"trial_lists/trial_list_1"
"0VIGE",".ุงูุฑุฌุงุก ุชุณููุฉ ูุฐู ุงูุตูุฑุฉ",152.738,20472,"ูุฌูุฉ ูุฑุจุนุฉ",1263,155.006,1,"ูุง ูุฏู ุชุทุงุจู ูุฐุง ุงูุงุณู ูุน ูุฐู ุงูุตูุฑุฉุ",10,"VCS_280.png",1,"trial_lists/trial_list_1"
"0VIGE",".ุงูุฑุฌุงุก ุชุณููุฉ ูุฐู ุงูุตูุฑุฉ",168.216,13179,"ุฐุฆุจ",5594,174.814,3,"ูุง ูุฏู ุชุทุงุจู ูุฐุง ุงูุงุณู ูุน ูุฐู ุงูุตูุฑุฉุ",11,"dog.png",1,"trial_lists/trial_list_1"
"0VIGE",".ุงูุฑุฌุงุก ุชุณููุฉ ูุฐู ุงูุตูุฑุฉ",196.787,21939,"ููุจุณ",1676,199.47,2,"ูุง ูุฏู ุชุทุงุจู ูุฐุง ุงูุงุณู ูุน ูุฐู ุงูุตูุฑุฉุ",12,"VCS_100.png",1,"trial_lists/trial_list_1"
"0VIGE",".ุงูุฑุฌุงุก ุชุณููุฉ ูุฐู ุงูุตูุฑุฉ",204.695,5192,"ูุนุงุก",2448,208.149,2,"ูุง ูุฏู ุชุทุงุจู ูุฐุง ุงูุงุณู ูุน ูุฐู ุงูุตูุฑุฉุ",13,"VCS_130.png",1,"trial_lists/trial_list_1"
"0VIGE",".ุงูุฑุฌุงุก ุชุณููุฉ ูุฐู ุงูุตูุฑุฉ",213.032,4852,"ูุฌูุฉ",1584,215.621,3,"ูุง ูุฏู ุชุทุงุจู ูุฐุง ุงูุงุณู ูุน ูุฐู ุงูุตูุฑุฉุ",14,"VCS_40.png",1,"trial_lists/trial_list_1"
"0VIGE",".ุงูุฑุฌุงุก ุชุณููุฉ ูุฐู ุงูุตูุฑุฉ",221.715,6063,"ูุฌูุฉ ุนูุงูุฉ",5918,228.638,3,"ูุง ูุฏู ุชุทุงุจู ูุฐุง ุงูุงุณู ูุน ูุฐู ุงูุตูุฑุฉุ",15,"VCS_250.png",1,"trial_lists/trial_list_1"
"0X8VC",".ุงูุฑุฌุงุก ุชุณููุฉ ูุฐู ุงูุตูุฑุฉ",93.703,12168,"ุฎูุงุณู",17316,112.052,3,"ูุง ูุฏู ุชุทุงุจู ูุฐุง ุงูุงุณู ูุน ูุฐู ุงูุตูุฑุฉุ",1,"VCS_230.png",2,"trial_lists/trial_list_2"
"0X8VC",".ุงูุฑุฌุงุก ุชุณููุฉ ูุฐู ุงูุตูุฑุฉ",124.604,12471,"ููุจ",3111,128.746,4,"ูุง ูุฏู ุชุทุงุจู ูุฐุง ุงูุงุณู ูุน ูุฐู ุงูุตูุฑุฉุ",2,"dog.png",2,"trial_lists/trial_list_2"
"0X8VC",".ุงูุฑุฌุงุก ุชุณููุฉ ูุฐู ุงูุตูุฑุฉ",145.84,17049,"ุณุฏุงุณู",5907,152.773,3,"ูุง ูุฏู ุชุทุงุจู ูุฐุง ุงูุงุณู ูุน ูุฐู ุงูุตูุฑุฉุ",3,"VCS_320.png",2,"trial_lists/trial_list_2"
"0X8VC",".ุงูุฑุฌุงุก ุชุณููุฉ ูุฐู ุงูุตูุฑุฉ",160.668,7831,"ูุฑุจุน",1734,163.425,4,"ูุง ูุฏู ุชุทุงุจู ูุฐุง ุงูุงุณู ูุน ูุฐู ุงูุตูุฑุฉุ",4,"square.png",2,"trial_lists/trial_list_2"
"0X8VC",".ุงูุฑุฌุงุก ุชุณููุฉ ูุฐู ุงูุตูุฑุฉ",170.097,6627,"ูุฌูู",1863,172.992,4,"ูุง ูุฏู ุชุทุงุจู ูุฐุง ุงูุงุณู ูุน ูุฐู ุงูุตูุฑุฉุ",5,"VCS_20.png",2,"trial_lists/trial_list_2"
"0X8VC",".ุงูุฑุฌุงุก ุชุณููุฉ ูุฐู ุงูุตูุฑุฉ",198.3,25256,"ุฅูุงุก",2753,202.08,2,"ูุง ูุฏู ุชุทุงุจู ูุฐุง ุงูุงุณู ูุน ูุฐู ุงูุตูุฑุฉุ",6,"VCS_140.png",2,"trial_lists/trial_list_2"
"0X8VC",".ุงูุฑุฌุงุก ุชุณููุฉ ูุฐู ุงูุตูุฑุฉ",208.679,6551,"ูุซูุซ",952,210.654,4,"ูุง ูุฏู ุชุทุงุจู ูุฐุง ุงูุงุณู ูุน ูุฐู ุงูุตูุฑุฉุ",7,"triangle.png",2,"trial_lists/trial_list_2"
"0X8VC",".ุงูุฑุฌุงุก ุชุณููุฉ ูุฐู ุงูุตูุฑุฉ",224.37,13686,"ูุนุงุก",2212,227.608,3,"ูุง ูุฏู ุชุทุงุจู ูุฐุง ุงูุงุณู ูุน ูุฐู ุงูุตูุฑุฉุ",8,"VCS_170.png",2,"trial_lists/trial_list_2"
"0X8VC",".ุงูุฑุฌุงุก ุชุณููุฉ ูุฐู ุงูุตูุฑุฉ",241.21,13555,"ุจูุนู",2400,244.638,3,"ูุง ูุฏู ุชุทุงุจู ูุฐุง ุงูุงุณู ูุน ูุฐู ุงูุตูุฑุฉุ",9,"VCS_50.png",2,"trial_lists/trial_list_2"
"0X8VC",".ุงูุฑุฌุงุก ุชุณููุฉ ูุฐู ุงูุตูุฑุฉ",258.609,13923,"ุดุจูู ูุฌูู",1556,261.183,2,"ูุง ูุฏู ุชุทุงุจู ูุฐุง ุงูุงุณู ูุน ูุฐู ุงูุตูุฑุฉุ",10,"VCS_260.png",2,"trial_lists/trial_list_2"
"0X8VC",".ุงูุฑุฌุงุก ุชุณููุฉ ูุฐู ุงูุตูุฑุฉ",269.093,7878,"ูุฌูู ุงูุจุญุฑ",3445,273.558,2,"ูุง ูุฏู ุชุทุงุจู ูุฐุง ุงูุงุณู ูุน ูุฐู ุงูุตูุฑุฉุ",11,"VCS_350.png",2,"trial_lists/trial_list_2"
"0X8VC",".ุงูุฑุฌุงุก ุชุณููุฉ ูุฐู ุงูุตูุฑุฉ",287.134,13533,"ูุงุงุนุฑู",1311,289.463,1,"ูุง ูุฏู ุชุทุงุจู ูุฐุง ุงูุงุณู ูุน ูุฐู ุงูุตูุฑุฉุ",12,"VCS_290.png",2,"trial_lists/trial_list_2"
"0X8VC",".ุงูุฑุฌุงุก ุชุณููุฉ ูุฐู ุงูุตูุฑุฉ",297.149,7637,"ุนุดูุงุฆู",1307,299.474,1,"ูุง ูุฏู ุชุทุงุจู ูุฐุง ุงูุงุณู ูุน ูุฐู ุงูุตูุฑุฉุ",13,"VCS_200.png",2,"trial_lists/trial_list_2"
"0X8VC",".ุงูุฑุฌุงุก ุชุณููุฉ ูุฐู ุงูุตูุฑุฉ",307.388,7874,"ุนุดูุงุฆู",1190,309.597,1,"ูุง ูุฏู ุชุทุงุจู ูุฐุง ุงูุงุณู ูุน ูุฐู ุงูุตูุฑุฉุ",14,"VCS_80.png",2,"trial_lists/trial_list_2"
"0X8VC",".ุงูุฑุฌุงุก ุชุณููุฉ ูุฐู ุงูุตูุฑุฉ",318.642,8994,"ุนุดูุงุฆู",1343,321.007,1,"ูุง ูุฏู ุชุทุงุจู ูุฐุง ุงูุงุณู ูุน ูุฐู ุงูุตูุฑุฉุ",15,"VCS_110.png",2,"trial_lists/trial_list_2"
"0xqiN",".ุงูุฑุฌุงุก ุชุณููุฉ ูุฐู ุงูุตูุฑุฉ",56.037,21902,"ุฃููุงุณ",18219,75.273,2,"ูุง ูุฏู ุชุทุงุจู ูุฐุง ุงูุงุณู ูุน ูุฐู ุงูุตูุฑุฉุ",1,"VCS_190.png",1,"trial_lists/trial_list_1"
"0xqiN",".ุงูุฑุฌุงุก ุชุณููุฉ ูุฐู ุงูุตูุฑุฉ",97.047,21744,"ุตุงุฑูุฎ",4430,102.485,3,"ูุง ูุฏู ุชุทุงุจู ูุฐุง ุงูุงุณู ูุน ูุฐู ุงูุตูุฑุฉุ",2,"VCS_250.png",1,"trial_lists/trial_list_1"
"0xqiN",".ุงูุฑุฌุงุก ุชุณููุฉ ูุฐู ุงูุตูุฑุฉ",116.516,13999,"ุตุงุฑูุฎ",1859,119.382,3,"ูุง ูุฏู ุชุทุงุจู ูุฐุง ุงูุงุณู ูุน ูุฐู ุงูุตูุฑุฉุ",3,"VCS_280.png",1,"trial_lists/trial_list_1"
"0xqiN",".ุงูุฑุฌุงุก ุชุณููุฉ ูุฐู ุงูุตูุฑุฉ",129.497,10085,"ุทุงุฆุฑุฉ",3371,133.879,4,"ูุง ูุฏู ุชุทุงุจู ูุฐุง ุงูุงุณู ูุน ูุฐู ุงูุตูุฑุฉุ",4,"VCS_10.png",1,"trial_lists/trial_list_1"
"0xqiN",".ุงูุฑุฌุงุก ุชุณููุฉ ูุฐู ุงูุตูุฑุฉ",147.53,13624,"ุฅุทุงุฑ",2143,150.682,3,"ูุง ูุฏู ุชุทุงุจู ูุฐุง ุงูุงุณู ูุน ูุฐู ุงูุตูุฑุฉุ",5,"square.png",1,"trial_lists/trial_list_1"
"0yCXR",".ุงูุฑุฌุงุก ุชุณููุฉ ูุฐู ุงูุตูุฑุฉ",36.717,22704,"ูุณุงุญุฉ ูุงุฑุบุฉ",4385,42.159,4,"ูุง ูุฏู ุชุทุงุจู ูุฐุง ุงูุงุณู ูุน ูุฐู ุงูุตูุฑุฉุ",1,"square.png",1,"trial_lists/trial_list_1"
"0yCXR",".ุงูุฑุฌุงุก ุชุณููุฉ ูุฐู ุงูุตูุฑุฉ",89.007,46803,"ุดูู ุชุณุงุนู",3478,93.516,4,"ูุง ูุฏู ุชุทุงุจู ูุฐุง ุงูุงุณู ูุน ูุฐู ุงูุตูุฑุฉุ",2,"VCS_280.png",1,"trial_lists/trial_list_1"
"0yCXR",".ุงูุฑุฌุงุก ุชุณููุฉ ูุฐู ุงูุตูุฑุฉ",103.831,10247,"ููุจ",1869,106.737,4,"ูุง ูุฏู ุชุทุงุจู ูุฐุง ุงูุงุณู ูุน ูุฐู ุงูุตูุฑุฉุ",3,"dog.png",1,"trial_lists/trial_list_1"
"0yCXR",".ุงูุฑุฌุงุก ุชุณููุฉ ูุฐู ุงูุตูุฑุฉ",174.839,68056,"ุดูู ุชุตููุฑู",9691,185.56,4,"ูุง ูุฏู ุชุทุงุจู ูุฐุง ุงูุงุณู ูุน ูุฐู ุงูุตูุฑุฉุ",4,"VCS_130.png",1,"trial_lists/trial_list_1"
"0yCXR",".ุงูุฑุฌุงุก ุชุณููุฉ ูุฐู ุงูุตูุฑุฉ",197.323,11720,"ุฎูุงุณู",5090,203.442,4,"ูุง ูุฏู ุชุทุงุจู ูุฐุง ุงูุงุณู ูุน ูุฐู ุงูุตูุฑุฉุ",5,"VCS_220.png",1,"trial_lists/trial_list_1"
"0yCXR",".ุงูุฑุฌุงุก ุชุณููุฉ ูุฐู ุงูุตูุฑุฉ",217.932,14433,"ูุฌูุฉ ุฑุจุงุนูุฉ",8692,227.653,2,"ูุง ูุฏู ุชุทุงุจู ูุฐุง ุงูุงุณู ูุน ูุฐู ุงูุตูุฑุฉุ",6,"VCS_10.png",1,"trial_lists/trial_list_1"
"0yCXR",".ุงูุฑุฌุงุก ุชุณููุฉ ูุฐู ุงูุตูุฑุฉ",240.121,12427,"ุดุจู ูุฌูุฉ",2035,243.177,1,"ูุง ูุฏู ุชุทุงุจู ูุฐุง ุงูุงุณู ูุน ูุฐู ุงูุตูุฑุฉุ",7,"VCS_310.png",1,"trial_lists/trial_list_1"
"0yCXR",".ุงูุฑุฌุงุก ุชุณููุฉ ูุฐู ุงูุตูุฑุฉ",263.453,20236,"ูุนุงุก",2128,266.606,3,"ูุง ูุฏู ุชุทุงุจู ูุฐุง ุงูุงุณู ูุน ูุฐู ุงูุตูุฑุฉุ",8,"VCS_160.png",1,"trial_lists/trial_list_1"
"0yCXR",".ุงูุฑุฌุงุก ุชุณููุฉ ูุฐู ุงูุตูุฑุฉ",299.812,33161,"ุฑุณูุฉ",25979,326.815,2,"ูุง ูุฏู ุชุทุงุจู ูุฐุง ุงูุงุณู ูุน ูุฐู ุงูุตูุฑุฉุ",9,"VCS_70.png",1,"trial_lists/trial_list_1"
"0yVio",".ุงูุฑุฌุงุก ุชุณููุฉ ูุฐู ุงูุตูุฑุฉ",53.161,33170,"Polygon",17025,71.217,4,"ูุง ูุฏู ุชุทุงุจู ูุฐุง ุงูุงุณู ูุน ูุฐู ุงูุตูุฑุฉุ",1,"VCS_220.png",1,"trial_lists/trial_list_1"
"0yVio",".ุงูุฑุฌุงุก ุชุณููุฉ ูุฐู ุงูุตูุฑุฉ",111.055,39769,"Multiple",6868,118.939,4,"ูุง ูุฏู ุชุทุงุจู ูุฐุง ุงูุงุณู ูุน ูุฐู ุงูุตูุฑุฉุ",2,"VCS_40.png",1,"trial_lists/trial_list_1"
"0z8vY",".ุงูุฑุฌุงุก ุชุณููุฉ ูุฐู ุงูุตูุฑุฉ",27.676,23417,"ููุจ",3792,32.511,4,"ูุง ูุฏู ุชุทุงุจู ูุฐุง ุงูุงุณู ูุน ูุฐู ุงูุตูุฑุฉุ",1,"dog.png",3,"trial_lists/trial_list_3"
"0z8vY",".ุงูุฑุฌุงุก ุชุณููุฉ ูุฐู ุงูุตูุฑุฉ",38.443,5897,"ูุซูุซ",2490,41.957,4,"ูุง ูุฏู ุชุทุงุจู ูุฐุง ุงูุงุณู ูุน ูุฐู ุงูุตูุฑุฉุ",2,"triangle.png",3,"trial_lists/trial_list_3"
"0z8vY",".ุงูุฑุฌุงุก ุชุณููุฉ ูุฐู ุงูุตูุฑุฉ",53.162,11171,"ูุฌู ูุซูุซ",3451,57.651,3,"ูุง ูุฏู ุชุทุงุจู ูุฐุง ุงูุงุณู ูุน ูุฐู ุงูุตูุฑุฉุ",3,"VCS_360.png",3,"trial_lists/trial_list_3"
"0z8vY",".ุงูุฑุฌุงุก ุชุณููุฉ ูุฐู ุงูุตูุฑุฉ",70.18,12493,"ุณูุจุงุนู ูููุฌ",1532,72.75,2,"ูุง ูุฏู ุชุทุงุจู ูุฐุง ุงูุงุณู ูุน ูุฐู ุงูุตูุฑุฉุ",4,"VCS_180.png",3,"trial_lists/trial_list_3"
"0z8vY",".ุงูุฑุฌุงุก ุชุณููุฉ ูุฐู ุงูุตูุฑุฉ",81.772,8974,"ูุฌู ูุนูู",1444,84.235,2,"ูุง ูุฏู ุชุทุงุจู ูุฐุง ุงูุงุณู ูุน ูุฐู ุงูุตูุฑุฉุ",5,"VCS_330.png",3,"trial_lists/trial_list_3"
"0z8vY",".ุงูุฑุฌุงุก ุชุณููุฉ ูุฐู ุงูุตูุฑุฉ",93.458,9191,"ูุฌู ูุฑุจุน",4960,99.439,2,"ูุง ูุฏู ุชุทุงุจู ูุฐุง ุงูุงุณู ูุน ูุฐู ุงูุตูุฑุฉุ",6,"VCS_270.png",3,"trial_lists/trial_list_3"
"0z8vY",".ุงูุฑุฌุงุก ุชุณููุฉ ูุฐู ุงูุตูุฑุฉ",113.446,13971,"ูุฌูู",3578,118.066,3,"ูุง ูุฏู ุชุทุงุจู ูุฐุง ุงูุงุณู ูุน ูุฐู ุงูุตูุฑุฉุ",7,"VCS_30.png",3,"trial_lists/trial_list_3"
"0z8vY",".ุงูุฑุฌุงุก ุชุณููุฉ ูุฐู ุงูุตูุฑุฉ",125.559,7425,"ูุฌู ุงุฑูุจ",3191,129.783,3,"ูุง ูุฏู ุชุทุงุจู ูุฐุง ุงูุงุณู ูุน ูุฐู ุงูุตูุฑุฉุ",8,"VCS_120.png",3,"trial_lists/trial_list_3"
"0z8vY",".ุงูุฑุฌุงุก ุชุณููุฉ ูุฐู ุงูุตูุฑุฉ",145.54,15710,"ุณุฏุงุณู ูููุฌ",1503,148.072,3,"ูุง ูุฏู ุชุทุงุจู ูุฐุง ุงูุงุณู ูุน ูุฐู ุงูุตูุฑุฉุ",9,"VCS_150.png",3,"trial_lists/trial_list_3"
"0z8vY",".ุงูุฑุฌุงุก ุชุณููุฉ ูุฐู ุงูุตูุฑุฉ",172.416,24297,"ูุฌู ููุนุจ",2141,175.591,3,"ูุง ูุฏู ุชุทุงุจู ูุฐุง ุงูุงุณู ูุน ูุฐู ุงูุตูุฑุฉุ",10,"VCS_300.png",3,"trial_lists/trial_list_3"
"0z8vY",".ุงูุฑุฌุงุก ุชุณููุฉ ูุฐู ุงูุตูุฑุฉ",189.008,13350,"ูุฌู ูุฑุจุน",7213,197.262,3,"ูุง ูุฏู ุชุทุงุจู ูุฐุง ุงูุงุณู ูุน ูุฐู ุงูุตูุฑุฉุ",11,"VCS_240.png",3,"trial_lists/trial_list_3"
"0z8vY",".ุงูุฑุฌุงุก ุชุณููุฉ ูุฐู ุงูุตูุฑุฉ",207.181,9869,"ูุฑุจุน",2131,210.338,4,"ูุง ูุฏู ุชุทุงุจู ูุฐุง ุงูุงุณู ูุน ูุฐู ุงูุตูุฑุฉุ",12,"square.png",3,"trial_lists/trial_list_3"
"0z8vY",".ุงูุฑุฌุงุก ุชุณููุฉ ูุฐู ุงูุตูุฑุฉ",222.042,11668,"ูุฌู ุงุฑูุจ",2144,225.22,3,"ูุง ูุฏู ุชุทุงุจู ูุฐุง ุงูุงุณู ูุน ูุฐู ุงูุตูุฑุฉุ",13,"VCS_90.png",3,"trial_lists/trial_list_3"
"0z8vY",".ุงูุฑุฌุงุก ุชุณููุฉ ูุฐู ุงูุตูุฑุฉ",244.039,18794,"ุฎูุงุณู ูููุฌ",3439,248.518,3,"ูุง ูุฏู ุชุทุงุจู ูุฐุง ุงูุงุณู ูุน ูุฐู ุงูุตูุฑุฉุ",14,"VCS_210.png",3,"trial_lists/trial_list_3"
"0z8vY",".ุงูุฑุฌุงุก ุชุณููุฉ ูุฐู ุงูุตูุฑุฉ",277.29,28742,"ุนูุงูุฉ ุถุฑุจ ูููุฌู",2379,280.696,2,"ูุง ูุฏู ุชุทุงุจู ูุฐุง ุงูุงุณู ูุน ูุฐู ุงูุตูุฑุฉุ",15,"VCS_60.png",3,"trial_lists/trial_list_3"
"10TcV",".ุงูุฑุฌุงุก ุชุณููุฉ ูุฐู ุงูุตูุฑุฉ",47.641,29467,"ุนูุดุงุฑู",20485,69.141,2,"ูุง ูุฏู ุชุทุงุจู ูุฐุง ุงูุงุณู ูุน ูุฐู ุงูุตูุฑุฉุ",1,"VCS_240.png",3,"trial_lists/trial_list_3"
"10TcV",".ุงูุฑุฌุงุก ุชุณููุฉ ูุฐู ุงูุตูุฑุฉ",84.316,15118,"ูุฑุจุน",1610,86.932,3,"ูุง ูุฏู ุชุทุงุจู ูุฐุง ุงูุงุณู ูุน ูุฐู ุงูุตูุฑุฉุ",2,"square.png",3,"trial_lists/trial_list_3"
"10TcV",".ุงูุฑุฌุงุก ุชุณููุฉ ูุฐู ุงูุตูุฑุฉ",125.084,38104,"ุฎูุงุณู",1646,127.743,1,"ูุง ูุฏู ุชุทุงุจู ูุฐุง ุงูุงุณู ูุน ูุฐู ุงูุตูุฑุฉุ",3,"VCS_210.png",3,"trial_lists/trial_list_3"
"10TcV",".ุงูุฑุฌุงุก ุชุณููุฉ ูุฐู ุงูุตูุฑุฉ",174.458,46675,"ูุตู ูุฑุจุน ุฐู ุซูุงุซุฉ ุฑุคูุณ ูุฏุจุจุฉ ุงู ูุตู ูุฑุจุน ููุตู ูุฌูุฉ",4733,180.197,3,"ูุง ูุฏู ุชุทุงุจู ูุฐุง ุงูุงุณู ูุน ูุฐู ุงูุตูุฑุฉุ",4,"VCS_270.png",3,"trial_lists/trial_list_3"
"10TcV",".ุงูุฑุฌุงุก ุชุณููุฉ ูุฐู ุงูุตูุฑุฉ",217.352,37113,"ูุง ุงุนูู",1614,219.972,1,"ูุง ูุฏู ุชุทุงุจู ูุฐุง ุงูุงุณู ูุน ูุฐู ุงูุตูุฑุฉุ",5,"VCS_300.png",3,"trial_lists/trial_list_3"
"13AGY",".ุงูุฑุฌุงุก ุชุณููุฉ ูุฐู ุงูุตูุฑุฉ",91.013,10678,"ูุฎูุณ",4527,96.575,2,"ูุง ูุฏู ุชุทุงุจู ูุฐุง ุงูุงุณู ูุน ูุฐู ุงูุตูุฑุฉุ",1,"VCS_210.png",3,"trial_lists/trial_list_3"
"13AGY",".ุงูุฑุฌุงุก ุชุณููุฉ ูุฐู ุงูุตูุฑุฉ",104.282,7665,"ูุฌู",1771,107.085,3,"ูุง ูุฏู ุชุทุงุจู ูุฐุง ุงูุงุณู ูุน ูุฐู ุงูุตูุฑุฉุ",2,"VCS_330.png",3,"trial_lists/trial_list_3"
"13AGY",".ุงูุฑุฌุงุก ุชุณููุฉ ูุฐู ุงูุตูุฑุฉ",115.037,7915,"ูุฑุจุน",916,116.989,4,"ูุง ูุฏู ุชุทุงุจู ูุฐุง ุงูุงุณู ูุน ูุฐู ุงูุตูุฑุฉุ",3,"square.png",3,"trial_lists/trial_list_3"
"13AGY",".ุงูุฑุฌุงุก ุชุณููุฉ ูุฐู ุงูุตูุฑุฉ",125.271,8252,"ูุฌู",3585,129.888,3,"ูุง ูุฏู ุชุทุงุจู ูุฐุง ุงูุงุณู ูุน ูุฐู ุงูุตูุฑุฉุ",4,"VCS_300.png",3,"trial_lists/trial_list_3"
"13AGY",".ุงูุฑุฌุงุก ุชุณููุฉ ูุฐู ุงูุตูุฑุฉ",147.218,17288,"ุงุฑูุจ",3977,152.224,2,"ูุง ูุฏู ุชุทุงุจู ูุฐุง ุงูุงุณู ูุน ูุฐู ุงูุตูุฑุฉุ",5,"VCS_120.png",3,"trial_lists/trial_list_3"
"13AGY",".ุงูุฑุฌุงุก ุชุณููุฉ ูุฐู ุงูุตูุฑุฉ",160.164,7906,"ุงุฑูุจ",1891,163.084,2,"ูุง ูุฏู ุชุทุงุจู ูุฐุง ุงูุงุณู ูุน ูุฐู ุงูุตูุฑุฉุ",6,"VCS_90.png",3,"trial_lists/trial_list_3"
"13AGY",".ุงูุฑุฌุงุก ุชุณููุฉ ูุฐู ุงูุตูุฑุฉ",171.668,8546,"ูููุฌุง",1420,174.122,3,"ูุง ูุฏู ุชุทุงุจู ูุฐุง ุงูุงุณู ูุน ูุฐู ุงูุตูุฑุฉุ",7,"VCS_360.png",3,"trial_lists/trial_list_3"
"13AGY",".ุงูุฑุฌุงุก ุชุณููุฉ ูุฐู ุงูุตูุฑุฉ",185.473,11318,"ุฐุฆุจ",1968,188.472,4,"ูุง ูุฏู ุชุทุงุจู ูุฐุง ุงูุงุณู ูุน ูุฐู ุงูุตูุฑุฉุ",8,"dog.png",3,"trial_lists/trial_list_3"
"13AGY",".ุงูุฑุฌุงุก ุชุณููุฉ ูุฐู ุงูุตูุฑุฉ",193.466,4957,"ูุซูุซ",1712,196.211,4,"ูุง ูุฏู ุชุทุงุจู ูุฐุง ุงูุงุณู ูุน ูุฐู ุงูุตูุฑุฉุ",9,"triangle.png",3,"trial_lists/trial_list_3"
"13AGY",".ุงูุฑุฌุงุก ุชุณููุฉ ูุฐู ุงูุตูุฑุฉ",203.168,6921,"ูุฒูุฑูุฉ",1552,205.745,3,"ูุง ูุฏู ุชุทุงุจู ูุฐุง ุงูุงุณู ูุน ูุฐู ุงูุตูุฑุฉุ",10,"VCS_150.png",3,"trial_lists/trial_list_3"
"13AGY",".ุงูุฑุฌุงุก ุชุณููุฉ ูุฐู ุงูุตูุฑุฉ",214.834,9058,"ุชุงุฌ",2158,218.02,2,"ูุง ูุฏู ุชุทุงุจู ูุฐุง ุงูุงุณู ูุน ูุฐู ุงูุตูุฑุฉุ",11,"VCS_270.png",3,"trial_lists/trial_list_3"
"13AGY",".ุงูุฑุฌุงุก ุชุณููุฉ ูุฐู ุงูุตูุฑุฉ",225.549,7496,"ุชุงุฌ",1888,228.466,2,"ูุง ูุฏู ุชุทุงุจู ูุฐุง ุงูุงุณู ูุน ูุฐู ุงูุตูุฑุฉุ",12,"VCS_240.png",3,"trial_lists/trial_list_3"
"13AGY",".ุงูุฑุฌุงุก ุชุณููุฉ ูุฐู ุงูุตูุฑุฉ",237.185,8683,"ูุจุนุฉ",1504,239.72,2,"ูุง ูุฏู ุชุทุงุจู ูุฐุง ุงูุงุณู ูุน ูุฐู ุงูุตูุฑุฉุ",13,"VCS_180.png",3,"trial_lists/trial_list_3"
"13AGY",".ุงูุฑุฌุงุก ุชุณููุฉ ูุฐู ุงูุตูุฑุฉ",249.619,9862,"ูุฑุฏุฉ",1286,251.933,1,"ูุง ูุฏู ุชุทุงุจู ูุฐุง ุงูุงุณู ูุน ูุฐู ุงูุตูุฑุฉุ",14,"VCS_30.png",3,"trial_lists/trial_list_3"
"13AGY",".ุงูุฑุฌุงุก ุชุณููุฉ ูุฐู ุงูุตูุฑุฉ",264.063,12100,"ููุญูู",1800,266.89,2,"ูุง ูุฏู ุชุทุงุจู ูุฐุง ุงูุงุณู ูุน ูุฐู ุงูุตูุฑุฉุ",15,"VCS_60.png",3,"trial_lists/trial_list_3"
"16KiB",".ุงูุฑุฌุงุก ุชุณููุฉ ูุฐู ุงูุตูุฑุฉ",40.159,24740,"ููุณุง",21519,62.692,4,"ูุง ูุฏู ุชุทุงุจู ูุฐุง ุงูุงุณู ูุน ูุฐู ุงูุตูุฑุฉุ",1,"VCS_330.png",3,"trial_lists/trial_list_3"
"16KiB",".ุงูุฑุฌุงุก ุชุณููุฉ ูุฐู ุงูุตูุฑุฉ",70.875,8155,"ูุฌูุฉ",4871,76.753,4,"ูุง ูุฏู ุชุทุงุจู ูุฐุง ุงูุงุณู ูุน ูุฐู ุงูุตูุฑุฉุ",2,"VCS_360.png",3,"trial_lists/trial_list_3"
"16KiB",".ุงูุฑุฌุงุก ุชุณููุฉ ูุฐู ุงูุตูุฑุฉ",95.138,18357,"ูฉ ุงุถูุงุน",2173,98.318,1,"ูุง ูุฏู ุชุทุงุจู ูุฐุง ุงูุงุณู ูุน ูุฐู ุงูุตูุฑุฉุ",3,"VCS_240.png",3,"trial_lists/trial_list_3"
"16KiB",".ุงูุฑุฌุงุก ุชุณููุฉ ูุฐู ุงูุตูุฑุฉ",112.556,14210,"ููุฎุจุท",2274,115.837,1,"ูุง ูุฏู ุชุทุงุจู ูุฐุง ุงูุงุณู ูุน ูุฐู ุงูุตูุฑุฉุ",4,"VCS_60.png",3,"trial_lists/trial_list_3"
"16KiB",".ุงูุฑุฌุงุก ุชุณููุฉ ูุฐู ุงูุตูุฑุฉ",121.222,5357,"ุบุฑูุจ",1152,123.38,1,"ูุง ูุฏู ุชุทุงุจู ูุฐุง ุงูุงุณู ูุน ูุฐู ุงูุตูุฑุฉุ",5,"VCS_180.png",3,"trial_lists/trial_list_3"
"16KiB",".ุงูุฑุฌุงุก ุชุณููุฉ ูุฐู ุงูุตูุฑุฉ",129.081,5674,"ูุง ุงุนุฑู",1189,131.278,1,"ูุง ูุฏู ุชุทุงุจู ูุฐุง ุงูุงุณู ูุน ูุฐู ุงูุตูุฑุฉุ",6,"VCS_210.png",3,"trial_lists/trial_list_3"
"16KiB",".ุงูุฑุฌุงุก ุชุณููุฉ ูุฐู ุงูุตูุฑุฉ",138.864,7558,"ุฌูุทุฉ",1373,141.244,1,"ูุง ูุฏู ุชุทุงุจู ูุฐุง ุงูุงุณู ูุน ูุฐู ุงูุตูุฑุฉุ",7,"VCS_30.png",3,"trial_lists/trial_list_3"
"16KiB",".ุงูุฑุฌุงุก ุชุณููุฉ ูุฐู ุงูุตูุฑุฉ",146.739,5468,"ูุซูุซ",1481,149.227,4,"ูุง ูุฏู ุชุทุงุจู ูุฐุง ุงูุงุณู ูุน ูุฐู ุงูุตูุฑุฉุ",8,"triangle.png",3,"trial_lists/trial_list_3"
"16KiB",".ุงูุฑุฌุงุก ุชุณููุฉ ูุฐู ุงูุตูุฑุฉ",154.129,4875,"ุบุฑูุจ",1107,156.244,1,"ูุง ูุฏู ุชุทุงุจู ูุฐุง ุงูุงุณู ูุน ูุฐู ุงูุตูุฑุฉุ",9,"VCS_120.png",3,"trial_lists/trial_list_3"
"16KiB",".ุงูุฑุฌุงุก ุชุณููุฉ ูุฐู ุงูุตูุฑุฉ",160.106,3836,"ูุฑุจุน",3655,164.769,4,"ูุง ูุฏู ุชุทุงุจู ูุฐุง ุงูุงุณู ูุน ูุฐู ุงูุตูุฑุฉุ",10,"square.png",3,"trial_lists/trial_list_3"
"16KiB",".ุงูุฑุฌุงุก ุชุณููุฉ ูุฐู ุงูุตูุฑุฉ",170.78,5983,"ุงุฑูุจ",1314,173.102,1,"ูุง ูุฏู ุชุทุงุจู ูุฐุง ุงูุงุณู ูุน ูุฐู ุงูุตูุฑุฉุ",11,"VCS_90.png",3,"trial_lists/trial_list_3"
"16KiB",".ุงูุฑุฌุงุก ุชุณููุฉ ูุฐู ุงูุตูุฑุฉ",179.686,6556,"ูุจุนุฉ",1126,181.819,1,"ูุง ูุฏู ุชุทุงุจู ูุฐุง ุงูุงุณู ูุน ูุฐู ุงูุตูุฑุฉุ",12,"VCS_300.png",3,"trial_lists/trial_list_3"
"16KiB",".ุงูุฑุฌุงุก ุชุณููุฉ ูุฐู ุงูุตูุฑุฉ",187.786,5940,"ุทุงููุฉ",1117,189.911,1,"ูุง ูุฏู ุชุทุงุจู ูุฐุง ุงูุงุณู ูุน ูุฐู ุงูุตูุฑุฉุ",13,"VCS_270.png",3,"trial_lists/trial_list_3"
"16KiB",".ุงูุฑุฌุงุก ุชุณููุฉ ูุฐู ุงูุตูุฑุฉ",199.286,9343,"ุฏุจุฏูุจ",2523,202.817,4,"ูุง ูุฏู ุชุทุงุจู ูุฐุง ุงูุงุณู ูุน ูุฐู ุงูุตูุฑุฉุ",14,"VCS_150.png",3,"trial_lists/trial_list_3"
"16KiB",".ุงูุฑุฌุงุก ุชุณููุฉ ูุฐู ุงูุตูุฑุฉ",209.743,6900,"ููุจ",9258,220.007,3,"ูุง ูุฏู ุชุทุงุจู ูุฐุง ุงูุงุณู ูุน ูุฐู ุงูุตูุฑุฉุ",15,"dog.png",3,"trial_lists/trial_list_3"
"1aYxe",".ุงูุฑุฌุงุก ุชุณููุฉ ูุฐู ุงูุตูุฑุฉ",79.862,22136,"ูุฌูุฉ",8672,89.553,2,"ูุง ูุฏู ุชุทุงุจู ูุฐุง ุงูุงุณู ูุน ูุฐู ุงูุตูุฑุฉุ",1,"VCS_300.png",3,"trial_lists/trial_list_3"
"1aYxe",".ุงูุฑุฌุงุก ุชุณููุฉ ูุฐู ุงูุตูุฑุฉ",124.807,35179,"ุดูู ุบูุฑ ููุชุธู",3597,129.419,3,"ูุง ูุฏู ุชุทุงุจู ูุฐุง ุงูุงุณู ูุน ูุฐู ุงูุตูุฑุฉุ",2,"VCS_60.png",3,"trial_lists/trial_list_3"
"1aYxe",".ุงูุฑุฌุงุก ุชุณููุฉ ูุฐู ุงูุตูุฑุฉ",139.84,10385,"ูุฌูุฉ",1040,141.894,2,"ูุง ูุฏู ุชุทุงุจู ูุฐุง ุงูุงุณู ูุน ูุฐู ุงูุตูุฑุฉุ",3,"VCS_270.png",3,"trial_lists/trial_list_3"
"1Dsrw",".ุงูุฑุฌุงุก ุชุณููุฉ ูุฐู ุงูุตูุฑุฉ",108.729,36392,"ูุงุฒู",8569,118.335,3,"ูุง ูุฏู ุชุทุงุจู ูุฐุง ุงูุงุณู ูุน ูุฐู ุงูุตูุฑุฉุ",1,"VCS_150.png",3,"trial_lists/trial_list_3"
"1Dsrw",".ุงูุฑุฌุงุก ุชุณููุฉ ูุฐู ุงูุตูุฑุฉ",206.77,88369,"X",8342,216.137,1,"ูุง ูุฏู ุชุทุงุจู ูุฐุง ุงูุงุณู ูุน ูุฐู ุงูุตูุฑุฉุ",2,"VCS_60.png",3,"trial_lists/trial_list_3"
"1Dsrw",".ุงูุฑุฌุงุก ุชุณููุฉ ูุฐู ุงูุตูุฑุฉ",280.188,64006,"ูุฌูุฉ ูู ุจููุณ",3304,284.516,2,"ูุง ูุฏู ุชุทุงุจู ูุฐุง ุงูุงุณู ูุน ูุฐู ุงูุตูุฑุฉุ",3,"VCS_270.png",3,"trial_lists/trial_list_3"
"1Dsrw",".ุงูุฑุฌุงุก ุชุณููุฉ ูุฐู ุงูุตูุฑุฉ",295.282,10718,"ููุจ",5941,302.251,4,"ูุง ูุฏู ุชุทุงุจู ูุฐุง ุงูุงุณู ูุน ูุฐู ุงูุตูุฑุฉุ",4,"dog.png",3,"trial_lists/trial_list_3"
"1Dsrw",".ุงูุฑุฌุงุก ุชุณููุฉ ูุฐู ุงูุตูุฑุฉ",323.052,20761,"ูุงููู",6853,330.929,2,"ูุง ูุฏู ุชุทุงุจู ูุฐุง ุงูุงุณู ูุน ูุฐู ุงูุตูุฑุฉุ",5,"VCS_90.png",3,"trial_lists/trial_list_3"
"1Dsrw",".ุงูุฑุฌุงุก ุชุณููุฉ ูุฐู ุงูุตูุฑุฉ",463.293,132321,"ูุฌูู",1996,466.314,2,"ูุง ูุฏู ุชุทุงุจู ูุฐุง ุงูุงุณู ูุน ูุฐู ุงูุตูุฑุฉุ",6,"VCS_330.png",3,"trial_lists/trial_list_3"
"1Dsrw",".ุงูุฑุฌุงุก ุชุณููุฉ ูุฐู ุงูุตูุฑุฉ",486.003,19645,"ูุฑุฏู",2331,489.359,2,"ูุง ูุฏู ุชุทุงุจู ูุฐุง ุงูุงุณู ูุน ูุฐู ุงูุตูุฑุฉุ",7,"VCS_360.png",3,"trial_lists/trial_list_3"
"1jHRP",".ุงูุฑุฌุงุก ุชุณููุฉ ูุฐู ุงูุตูุฑุฉ",32.349,9980,"ูุฌูุฉ",9899,43.259,2,"ูุง ูุฏู ุชุทุงุจู ูุฐุง ุงูุงุณู ูุน ูุฐู ุงูุตูุฑุฉุ",1,"VCS_20.png",2,"trial_lists/trial_list_2"
"1lVp9",".ุงูุฑุฌุงุก ุชุณููุฉ ูุฐู ุงูุตูุฑุฉ",27.027,21406,"ุฅุทุงุฑ ุฅุดุงุฑุฉ ูุฑูุฑ",1535,29.618,2,"ูุง ูุฏู ุชุทุงุจู ูุฐุง ุงูุงุณู ูุน ูุฐู ุงูุตูุฑุฉุ",1,"VCS_230.png",2,"trial_lists/trial_list_2"
"1lVp9",".ุงูุฑุฌุงุก ุชุณููุฉ ูุฐู ุงูุตูุฑุฉ",36.055,6368,"ููุฑูุณ",1157,38.246,2,"ูุง ูุฏู ุชุทุงุจู ูุฐุง ุงูุงุณู ูุน ูุฐู ุงูุตูุฑุฉุ",2,"VCS_80.png",2,"trial_lists/trial_list_2"
"1lVp9",".ุงูุฑุฌุงุก ุชุณููุฉ ูุฐู ุงูุตูุฑุฉ",48.212,9907,"ููุจ ุบูุฑ ููุชูู ุงููุฑู",1656,50.901,2,"ูุง ูุฏู ุชุทุงุจู ูุฐุง ุงูุงุณู ูุน ูุฐู ุงูุตูุฑุฉุ",3,"dog.png",2,"trial_lists/trial_list_2"
"1lVp9",".ุงูุฑุฌุงุก ุชุณููุฉ ูุฐู ุงูุตูุฑุฉ",57.807,6853,"ูุฒูุฑูุฉ",1471,60.305,2,"ูุง ูุฏู ุชุทุงุจู ูุฐุง ุงูุงุณู ูุน ูุฐู ุงูุตูุฑุฉุ",4,"VCS_170.png",2,"trial_lists/trial_list_2"
"1lVp9",".ุงูุฑุฌุงุก ุชุณููุฉ ูุฐู ุงูุตูุฑุฉ",80.489,20124,"ุชุตููู ููุณุชุงู",1478,83.004,2,"ูุง ูุฏู ุชุทุงุจู ูุฐุง ุงูุงุณู ูุน ูุฐู ุงูุตูุฑุฉุ",5,"VCS_140.png",2,"trial_lists/trial_list_2"
"1Msc7",".ุงูุฑุฌุงุก ุชุณููุฉ ูุฐู ุงูุตูุฑุฉ",36.867,33107,"ููุงุฑ",22036,59.918,1,"ูุง ูุฏู ุชุทุงุจู ูุฐุง ุงูุงุณู ูุน ูุฐู ุงูุตูุฑุฉุ",1,"VCS_150.png",3,"trial_lists/trial_list_3"
"1Msc7",".ุงูุฑุฌุงุก ุชุณููุฉ ูุฐู ุงูุตูุฑุฉ",69.313,9366,"ูุฌูุฉ",6114,76.433,3,"ูุง ูุฏู ุชุทุงุจู ูุฐุง ุงูุงุณู ูุน ูุฐู ุงูุตูุฑุฉุ",2,"VCS_270.png",3,"trial_lists/trial_list_3"
"1Msc7",".ุงูุฑุฌุงุก ุชุณููุฉ ูุฐู ุงูุตูุฑุฉ",97.212,20749,"ุฑุจุงุนู",2283,100.5,2,"ูุง ูุฏู ุชุทุงุจู ูุฐุง ุงูุงุณู ูุน ูุฐู ุงูุตูุฑุฉุ",3,"VCS_210.png",3,"trial_lists/trial_list_3"
"1Msc7",".ุงูุฑุฌุงุก ุชุณููุฉ ูุฐู ุงูุตูุฑุฉ",109.92,9390,"ุณุจููุฑ",2426,113.352,2,"ูุง ูุฏู ุชุทุงุจู ูุฐุง ุงูุงุณู ูุน ูุฐู ุงูุตูุฑุฉุ",4,"VCS_60.png",3,"trial_lists/trial_list_3"
"1Msc7",".ุงูุฑุฌุงุก ุชุณููุฉ ูุฐู ุงูุตูุฑุฉ",147.695,34312,"ูุจูุนุฉ ุดูู ๐จโ๐ณ",3408,152.11,3,"ูุง ูุฏู ุชุทุงุจู ูุฐุง ุงูุงุณู ูุน ูุฐู ุงูุตูุฑุฉุ",5,"VCS_180.png",3,"trial_lists/trial_list_3"
"1Msc7",".ุงูุฑุฌุงุก ุชุณููุฉ ูุฐู ุงูุตูุฑุฉ",163.743,11603,"ุดุจู ูุฌูุฉ",2262,167.012,3,"ูุง ูุฏู ุชุทุงุจู ูุฐุง ุงูุงุณู ูุน ูุฐู ุงูุตูุฑุฉุ",6,"VCS_300.png",3,"trial_lists/trial_list_3"
"1Msc7",".ุงูุฑุฌุงุก ุชุณููุฉ ูุฐู ุงูุตูุฑุฉ",171.756,4714,"ูุฌูุฉ",2518,175.28,4,"ูุง ูุฏู ุชุทุงุจู ูุฐุง ุงูุงุณู ูุน ูุฐู ุงูุตูุฑุฉุ",7,"VCS_360.png",3,"trial_lists/trial_list_3"
"1Msc7",".ุงูุฑุฌุงุก ุชุณููุฉ ูุฐู ุงูุตูุฑุฉ",181.933,6623,"ูุฌูุฉ",5728,188.666,1,"ูุง ูุฏู ุชุทุงุจู ูุฐุง ุงูุงุณู ูุน ูุฐู ุงูุตูุฑุฉุ",8,"VCS_30.png",3,"trial_lists/trial_list_3"
"1Msc7",".ุงูุฑุฌุงุก ุชุณููุฉ ูุฐู ุงูุตูุฑุฉ",202.353,13654,"ุณููุฉ ๐",5825,209.185,3,"ูุง ูุฏู ุชุทุงุจู ูุฐุง ุงูุงุณู ูุน ูุฐู ุงูุตูุฑุฉุ",9,"VCS_120.png",3,"trial_lists/trial_list_3"
"1Msc7",".ุงูุฑุฌุงุก ุชุณููุฉ ูุฐู ุงูุตูุฑุฉ",215.185,5977,"ูุซูุซ",3426,219.62,4,"ูุง ูุฏู ุชุทุงุจู ูุฐุง ุงูุงุณู ูุน ูุฐู ุงูุตูุฑุฉุ",10,"triangle.png",3,"trial_lists/trial_list_3"
"1Msc7",".ุงูุฑุฌุงุก ุชุณููุฉ ูุฐู ุงูุตูุฑุฉ",229.735,10085,"ููุจ",3262,234.005,4,"ูุง ูุฏู ุชุทุงุจู ูุฐุง ุงูุงุณู ูุน ูุฐู ุงูุตูุฑุฉุ",11,"dog.png",3,"trial_lists/trial_list_3"
"1Msc7",".ุงูุฑุฌุงุก ุชุณููุฉ ูุฐู ุงูุตูุฑุฉ",238.046,4012,"ูุฑุจุน",1424,240.475,4,"ูุง ูุฏู ุชุทุงุจู ูุฐุง ุงูุงุณู ูุน ูุฐู ุงูุตูุฑุฉุ",12,"square.png",3,"trial_lists/trial_list_3"
"1Msc7",".ุงูุฑุฌุงุก ุชุณููุฉ ูุฐู ุงูุตูุฑุฉ",251.755,11250,"ุณููุฉ",1163,253.925,1,"ูุง ูุฏู ุชุทุงุจู ูุฐุง ุงูุงุณู ูุน ูุฐู ุงูุตูุฑุฉุ",13,"VCS_90.png",3,"trial_lists/trial_list_3"
"1Msc7",".ุงูุฑุฌุงุก ุชุณููุฉ ูุฐู ุงูุตูุฑุฉ",259.387,5431,"ุดุจู ูุฌูุฉ",1584,261.978,2,"ูุง ูุฏู ุชุทุงุจู ูุฐุง ุงูุงุณู ูุน ูุฐู ุงูุตูุฑุฉุ",14,"VCS_330.png",3,"trial_lists/trial_list_3"
"1Msc7",".ุงูุฑุฌุงุก ุชุณููุฉ ูุฐู ุงูุตูุฑุฉ",367.755,105754,"๐ทุดุจู",3604,372.367,2,"ูุง ูุฏู ุชุทุงุจู ูุฐุง ุงูุงุณู ูุน ูุฐู ุงูุตูุฑุฉุ",15,"VCS_240.png",3,"trial_lists/trial_list_3"
"1NGVk",".ุงูุฑุฌุงุก ุชุณููุฉ ูุฐู ุงูุตูุฑุฉ",96.959,41873,"ุชุงุฌ",28423,126.397,3,"ูุง ูุฏู ุชุทุงุจู ูุฐุง ุงูุงุณู ูุน ูุฐู ุงูุตูุฑุฉุ",1,"VCS_250.png",1,"trial_lists/trial_list_1"
"1ReBO",".ุงูุฑุฌุงุก ุชุณููุฉ ูุฐู ุงูุตูุฑุฉ",44.656,29999,"Sqasts",18740,64.406,3,"ูุง ูุฏู ุชุทุงุจู ูุฐุง ุงูุงุณู ูุน ูุฐู ุงูุตูุฑุฉุ",1,"VCS_250.png",1,"trial_lists/trial_list_1"
"1ReBO",".ุงูุฑุฌุงุก ุชุณููุฉ ูุฐู ุงูุตูุฑุฉ",121.473,57043,"Spar",2286,124.763,3,"ูุง ูุฏู ุชุทุงุจู ูุฐุง ุงูุงุณู ูุน ูุฐู ุงูุตูุฑุฉุ",2,"VCS_10.png",1,"trial_lists/trial_list_1"
"1ReBO",".ุงูุฑุฌุงุก ุชุณููุฉ ูุฐู ุงูุตูุฑุฉ",146.229,21441,"Bubble",1637,148.871,2,"ูุง ูุฏู ุชุทุงุจู ูุฐุง ุงูุงุณู ูุน ูุฐู ุงูุตูุฑุฉุ",3,"VCS_40.png",1,"trial_lists/trial_list_1"
"1ReBO",".ุงูุฑุฌุงุก ุชุณููุฉ ูุฐู ุงูุตูุฑุฉ",161.336,12442,"Pentagon",2155,164.495,4,"ูุง ูุฏู ุชุทุงุจู ูุฐุง ุงูุงุณู ูุน ูุฐู ุงูุตูุฑุฉุ",4,"VCS_220.png",1,"trial_lists/trial_list_1"
"1ReBO",".ุงูุฑุฌุงุก ุชุณููุฉ ูุฐู ุงูุตูุฑุฉ",186.881,22363,"G dress",2474,190.359,4,"ูุง ูุฏู ุชุทุงุจู ูุฐุง ุงูุงุณู ูุน ูุฐู ุงูุตูุฑุฉุ",5,"VCS_130.png",1,"trial_lists/trial_list_1"
"1ReBO",".ุงูุฑุฌุงุก ุชุณููุฉ ูุฐู ุงูุตูุฑุฉ",212.026,21643,"Unidog",2678,215.708,3,"ูุง ูุฏู ุชุทุงุจู ูุฐุง ุงูุงุณู ูุน ูุฐู ุงูุตูุฑุฉุ",6,"dog.png",1,"trial_lists/trial_list_1"
"1ReBO",".ุงูุฑุฌุงุก ุชุณููุฉ ูุฐู ุงูุตูุฑุฉ",242.435,26706,"Squsta",1618,245.057,4,"ูุง ูุฏู ุชุทุงุจู ูุฐุง ุงูุงุณู ูุน ูุฐู ุงูุตูุฑุฉุ",7,"VCS_280.png",1,"trial_lists/trial_list_1"
"1ReBO",".ุงูุฑุฌุงุก ุชุณููุฉ ูุฐู ุงูุตูุฑุฉ",282.115,37037,"No H",3195,286.314,3,"ูุง ูุฏู ุชุทุงุจู ูุฐุง ุงูุงุณู ูุน ูุฐู ุงูุตูุฑุฉุ",8,"triangle.png",1,"trial_lists/trial_list_1"
"1ReBO",".ุงูุฑุฌุงุก ุชุณููุฉ ูุฐู ุงูุตูุฑุฉ",313.963,27622,"No longer",2987,317.956,2,"ูุง ูุฏู ุชุทุงุจู ูุฐุง ุงูุงุณู ูุน ูุฐู ุงูุตูุฑุฉุ",9,"VCS_70.png",1,"trial_lists/trial_list_1"
"1ReBO",".ุงูุฑุฌุงุก ุชุณููุฉ ูุฐู ุงูุตูุฑุฉ",332.488,14509,"Semi star",3044,336.537,4,"ูุง ูุฏู ุชุทุงุจู ูุฐุง ุงูุงุณู ูุน ูุฐู ุงูุตูุฑุฉุ",10,"VCS_340.png",1,"trial_lists/trial_list_1"
"1ReBO",".ุงูุฑุฌุงุก ุชุณููุฉ ูุฐู ุงูุตูุฑุฉ",346.305,9746,"Vase",2028,349.337,4,"ูุง ูุฏู ุชุทุงุจู ูุฐุง ุงูุงุณู ูุน ูุฐู ุงูุตูุฑุฉุ",11,"VCS_160.png",1,"trial_lists/trial_list_1"
"1ReBO",".ุงูุฑุฌุงุก ุชุณููุฉ ูุฐู ุงูุตูุฑุฉ",377.887,28527,"Underwater",4403,383.295,3,"ูุง ูุฏู ุชุทุงุจู ูุฐุง ุงูุงุณู ูุน ูุฐู ุงูุตูุฑุฉุ",12,"VCS_100.png",1,"trial_lists/trial_list_1"
"1ReBO",".ุงูุฑุฌุงุก ุชุณููุฉ ูุฐู ุงูุตูุฑุฉ",394.987,11669,"Not equal",4520,400.51,2,"ูุง ูุฏู ุชุทุงุจู ูุฐุง ุงูุงุณู ูุน ูุฐู ุงูุตูุฑุฉุ",13,"VCS_310.png",1,"trial_lists/trial_list_1"
"1ReBO",".ุงูุฑุฌุงุก ุชุณููุฉ ูุฐู ุงูุตูุฑุฉ",445.076,44544,"Not perfect vase",1635,447.715,3,"ูุง ูุฏู ุชุทุงุจู ูุฐุง ุงูุงุณู ูุน ูุฐู ุงูุตูุฑุฉุ",14,"VCS_190.png",1,"trial_lists/trial_list_1"
"1ReBO",".ุงูุฑุฌุงุก ุชุณููุฉ ูุฐู ุงูุตูุฑุฉ",464.568,16831,"Close space",4309,469.882,3,"ูุง ูุฏู ุชุทุงุจู ูุฐุง ุงูุงุณู ูุน ูุฐู ุงูุตูุฑุฉุ",15,"square.png",1,"trial_lists/trial_list_1"
"1T4CE",".ุงูุฑุฌุงุก ุชุณููุฉ ูุฐู ุงูุตูุฑุฉ",19.334,10733,"Pentagon",22772,43.128,3,"ูุง ูุฏู ุชุทุงุจู ูุฐุง ุงูุงุณู ูุน ูุฐู ุงูุตูุฑุฉุ",1,"VCS_220.png",1,"trial_lists/trial_list_1"
"1tQSV",".ุงูุฑุฌุงุก ุชุณููุฉ ูุฐู ุงูุตูุฑุฉ",23.763,14655,"ุดุจููุฉ ุงููุฌูุฉ",15861,40.65,3,"ูุง ูุฏู ุชุทุงุจู ูุฐุง ุงูุงุณู ูุน ูุฐู ุงูุตูุฑุฉุ",1,"VCS_340.png",1,"trial_lists/trial_list_1"
"1tQSV",".ุงูุฑุฌุงุก ุชุณููุฉ ูุฐู ุงูุตูุฑุฉ",54.489,13785,"ุญุงุฌุฉ ูุฏุฉ",3863,59.368,1,"ูุง ูุฏู ุชุทุงุจู ูุฐุง ุงูุงุณู ูุน ูุฐู ุงูุตูุฑุฉุ",2,"VCS_100.png",1,"trial_lists/trial_list_1"
"1tQSV",".ุงูุฑุฌุงุก ุชุณููุฉ ูุฐู ุงูุตูุฑุฉ",68.199,8779,"Vase",3507,72.726,4,"ูุง ูุฏู ุชุทุงุจู ูุฐุง ุงูุงุณู ูุน ูุฐู ุงูุตูุฑุฉุ",3,"VCS_160.png",1,"trial_lists/trial_list_1"
"1tQSV",".ุงูุฑุฌุงุก ุชุณููุฉ ูุฐู ุงูุตูุฑุฉ",79.705,6923,"ูุนุฑูุด",1308,82.028,1,"ูุง ูุฏู ุชุทุงุจู ูุฐุง ุงูุงุณู ูุน ูุฐู ุงูุตูุฑุฉุ",4,"VCS_190.png",1,"trial_lists/trial_list_1"
"1tQSV",".ุงูุฑุฌุงุก ุชุณููุฉ ูุฐู ุงูุตูุฑุฉ",95.873,13815,"ุจุฑุฏู ุดุจููุฉ ุงููุฌูุฉ",2472,99.362,2,"ูุง ูุฏู ุชุทุงุจู ูุฐุง ุงูุงุณู ูุน ูุฐู ุงูุตูุฑุฉุ",5,"VCS_310.png",1,"trial_lists/trial_list_1"
"1tQSV",".ุงูุฑุฌุงุก ุชุณููุฉ ูุฐู ุงูุตูุฑุฉ",115.337,15924,"ุณุจููุฑ ุงู ุจุชุงุนุฉ ุงููููุฌุง ุฏู",2411,118.765,1,"ูุง ูุฏู ุชุทุงุจู ูุฐุง ุงูุงุณู ูุน ูุฐู ุงูุตูุฑุฉุ",6,"VCS_10.png",1,"trial_lists/trial_list_1"
"1tQSV",".ุงูุฑุฌุงุก ุชุณููุฉ ูุฐู ุงูุตูุฑุฉ",137.127,18315,"ุฎูุงุณู ุจุณ ูู ุฎุท ูุณุชููู",1636,139.781,3,"ูุง ูุฏู ุชุทุงุจู ูุฐุง ุงูุงุณู ูุน ูุฐู ุงูุตูุฑุฉุ",7,"VCS_250.png",1,"trial_lists/trial_list_1"
"1tQSV",".ุงูุฑุฌุงุก ุชุณููุฉ ูุฐู ุงูุตูุฑุฉ",158.582,18751,"ู ุงููู ูุนุงุฑูุฉ ูุงุจูู",1639,161.237,1,"ูุง ูุฏู ุชุทุงุจู ูุฐุง ุงูุงุณู ูุน ูุฐู ุงูุตูุฑุฉุ",8,"VCS_70.png",1,"trial_lists/trial_list_1"
"1tQSV",".ุงูุฑุฌุงุก ุชุณููุฉ ูุฐู ุงูุตูุฑุฉ",180.716,19425,"ูุซูุซุ ุงุฎูุฑุง ุญุงุฌุฉ ุงูุง ุนุงุฑูุงูุง",1653,183.389,4,"ูุง ูุฏู ุชุทุงุจู ูุฐุง ุงูุงุณู ูุน ูุฐู ุงูุตูุฑุฉุ",9,"triangle.png",1,"trial_lists/trial_list_1"
"1tQSV",".ุงูุฑุฌุงุก ุชุณููุฉ ูุฐู ุงูุตูุฑุฉ",191.054,7620,"ุฎูุงุณู",1317,193.39,4,"ูุง ูุฏู ุชุทุงุจู ูุฐุง ุงูุงุณู ูุน ูุฐู ุงูุตูุฑุฉุ",10,"VCS_220.png",1,"trial_lists/trial_list_1"
"1tQSV",".ุงูุฑุฌุงุก ุชุณููุฉ ูุฐู ุงูุตูุฑุฉ",201.165,7727,"ููู ุจูู",1283,203.466,1,"ูุง ูุฏู ุชุทุงุจู ูุฐุง ุงูุงุณู ูุน ูุฐู ุงูุตูุฑุฉุ",11,"VCS_130.png",1,"trial_lists/trial_list_1"
"1tQSV",".ุงูุฑุฌุงุก ุชุณููุฉ ูุฐู ุงูุตูุฑุฉ",216.699,13187,"ุดุจููุฉ ุดุจููุฉ ุงูุณุจููุฑ",2805,220.519,1,"ูุง ูุฏู ุชุทุงุจู ูุฐุง ุงูุงุณู ูุน ูุฐู ุงูุตูุฑุฉุ",12,"VCS_40.png",1,"trial_lists/trial_list_1"
"1tQSV",".ุงูุฑุฌุงุก ุชุณููุฉ ูุฐู ุงูุตูุฑุฉ",225.097,4527,"ููุจ",1827,227.943,4,"ูุง ูุฏู ุชุทุงุจู ูุฐุง ุงูุงุณู ูุน ูุฐู ุงูุตูุฑุฉุ",13,"dog.png",1,"trial_lists/trial_list_1"
"1tQSV",".ุงูุฑุฌุงุก ุชุณููุฉ ูุฐู ุงูุตูุฑุฉ",233.37,5374,"ูุฑุจุน",1049,235.442,4,"ูุง ูุฏู ุชุทุงุจู ูุฐุง ุงูุงุณู ูุน ูุฐู ุงูุตูุฑุฉุ",14,"square.png",1,"trial_lists/trial_list_1"
"1tQSV",".ุงูุฑุฌุงุก ุชุณููุฉ ูุฐู ุงูุตูุฑุฉ",256.046,20560,"ูุฌูุฉ ููููุชุด ููุงุฎุฑ",2881,259.946,4,"ูุง ูุฏู ุชุทุงุจู ูุฐุง ุงูุงุณู ูุน ูุฐู ุงูุตูุฑุฉุ",15,"VCS_280.png",1,"trial_lists/trial_list_1"
"1UMe0",".ุงูุฑุฌุงุก ุชุณููุฉ ูุฐู ุงูุตูุฑุฉ",40.088,23400,"ููุญุฑู",11961,53.094,4,"ูุง ูุฏู ุชุทุงุจู ูุฐุง ุงูุงุณู ูุน ูุฐู ุงูุตูุฑุฉุ",1,"VCS_160.png",1,"trial_lists/trial_list_1"
"1UMe0",".ุงูุฑุฌุงุก ุชุณููุฉ ูุฐู ุงูุตูุฑุฉ",72.008,18866,"ูุชูุงุฒู ูุณุชุทููุงุช",2372,75.393,2,"ูุง ูุฏู ุชุทุงุจู ูุฐุง ุงูุงุณู ูุน ูุฐู ุงูุตูุฑุฉุ",2,"VCS_190.png",1,"trial_lists/trial_list_1"
"1UMe0",".ุงูุฑุฌุงุก ุชุณููุฉ ูุฐู ุงูุตูุฑุฉ",80.15,4707,"ูุฑุจุน",1099,82.26,4,"ูุง ูุฏู ุชุทุงุจู ูุฐุง ุงูุงุณู ูุน ูุฐู ุงูุตูุฑุฉุ",3,"square.png",1,"trial_lists/trial_list_1"
"1UMe0",".ุงูุฑุฌุงุก ุชุณููุฉ ูุฐู ุงูุตูุฑุฉ",88.653,6352,"ุฎูุงุณู",3430,93.095,1,"ูุง ูุฏู ุชุทุงุจู ูุฐุง ุงูุงุณู ูุน ูุฐู ุงูุตูุฑุฉุ",4,"VCS_220.png",1,"trial_lists/trial_list_1"
"1UMe0",".ุงูุฑุฌุงุก ุชุณููุฉ ูุฐู ุงูุตูุฑุฉ",105.821,12681,"ูุง ุงุณู ูู",2485,109.319,1,"ูุง ูุฏู ุชุทุงุจู ูุฐุง ุงูุงุณู ูุน ูุฐู ุงูุตูุฑุฉุ",5,"VCS_130.png",1,"trial_lists/trial_list_1"
"1UMe0",".ุงูุฑุฌุงุก ุชุณููุฉ ูุฐู ุงูุตูุฑุฉ",117.175,7811,"ูุฌู ุซูุงุซู",1668,119.858,3,"ูุง ูุฏู ุชุทุงุจู ูุฐุง ุงูุงุณู ูุน ูุฐู ุงูุตูุฑุฉุ",6,"VCS_310.png",1,"trial_lists/trial_list_1"
"1UMe0",".ุงูุฑุฌุงุก ุชุณููุฉ ูุฐู ุงูุตูุฑุฉ",129.282,9378,"ุซุนุฐุฆุจ",1699,131.997,1,"ูุง ูุฏู ุชุทุงุจู ูุฐุง ุงูุงุณู ูุน ูุฐู ุงูุตูุฑุฉุ",7,"dog.png",1,"trial_lists/trial_list_1"
"1UMe0",".ุงูุฑุฌุงุก ุชุณููุฉ ูุฐู ุงูุตูุฑุฉ",138.534,6491,"ูุฌุฑุจุน",2425,141.974,2,"ูุง ูุฏู ุชุทุงุจู ูุฐุง ุงูุงุณู ูุน ูุฐู ุงูุตูุฑุฉุ",8,"VCS_250.png",1,"trial_lists/trial_list_1"
"1UMe0",".ุงูุฑุฌุงุก ุชุณููุฉ ูุฐู ุงูุตูุฑุฉ",147.154,5126,"ุฑุจุงุนู",2709,150.878,3,"ูุง ูุฏู ุชุทุงุจู ูุฐุง ุงูุงุณู ูุน ูุฐู ุงูุตูุฑุฉุ",9,"VCS_340.png",1,"trial_lists/trial_list_1"
"1UMe0",".ุงูุฑุฌุงุก ุชุณููุฉ ูุฐู ุงูุตูุฑุฉ",158.728,7805,"ูุฌูุฉ ุงูุจุญุฑ",3484,163.225,4,"ูุง ูุฏู ุชุทุงุจู ูุฐุง ุงูุงุณู ูุน ูุฐู ุงูุตูุฑุฉุ",10,"VCS_40.png",1,"trial_lists/trial_list_1"
"1UMe0",".ุงูุฑุฌุงุก ุชุณููุฉ ูุฐู ุงูุตูุฑุฉ",167.447,4201,"ูุซูุซ",923,169.383,4,"ูุง ูุฏู ุชุทุงุจู ูุฐุง ุงูุงุณู ูุน ูุฐู ุงูุตูุฑุฉุ",11,"triangle.png",1,"trial_lists/trial_list_1"
"1UMe0",".ุงูุฑุฌุงุก ุชุณููุฉ ูุฐู ุงูุตูุฑุฉ",178.123,8697,"ูุง ุงุณู ูู",2308,181.44,2,"ูุง ูุฏู ุชุทุงุจู ูุฐุง ุงูุงุณู ูุน ูุฐู ุงูุตูุฑุฉุ",12,"VCS_70.png",1,"trial_lists/trial_list_1"
"1UMe0",".ุงูุฑุฌุงุก ุชุณููุฉ ูุฐู ุงูุตูุฑุฉ",190.511,9031,"ูุฌูุฉ ุงูุจ",1698,193.223,2,"ูุง ูุฏู ุชุทุงุจู ูุฐุง ุงูุงุณู ูุน ูุฐู ุงูุตูุฑุฉุ",13,"VCS_10.png",1,"trial_lists/trial_list_1"
"1UMe0",".ุงูุฑุฌุงุก ุชุณููุฉ ูุฐู ุงูุตูุฑุฉ",198.815,5549,"ุฑุฏุงุก",1820,201.648,1,"ูุง ูุฏู ุชุทุงุจู ูุฐุง ุงูุงุณู ูุน ูุฐู ุงูุตูุฑุฉุ",14,"VCS_100.png",1,"trial_lists/trial_list_1"
"1UMe0",".ุงูุฑุฌุงุก ุชุณููุฉ ูุฐู ุงูุตูุฑุฉ",208.579,6889,"ูุฌุฑุจุน",1095,210.685,1,"ูุง ูุฏู ุชุทุงุจู ูุฐุง ุงูุงุณู ูุน ูุฐู ุงูุตูุฑุฉุ",15,"VCS_280.png",1,"trial_lists/trial_list_1"
"1uZ4i",".ุงูุฑุฌุงุก ุชุณููุฉ ูุฐู ุงูุตูุฑุฉ",54.308,14030,"ูุฒูุฑูุฉ",13612,68.951,2,"ูุง ูุฏู ุชุทุงุจู ูุฐุง ุงูุงุณู ูุน ูุฐู ุงูุตูุฑุฉุ",1,"VCS_150.png",3,"trial_lists/trial_list_3"
"1uZ4i",".ุงูุฑุฌุงุก ุชุณููุฉ ูุฐู ุงูุตูุฑุฉ",90.696,21708,"ูุณุชุงู ูุตูุฑ",5188,96.901,1,"ูุง ูุฏู ุชุทุงุจู ูุฐุง ุงูุงุณู ูุน ูุฐู ุงูุตูุฑุฉุ",2,"VCS_120.png",3,"trial_lists/trial_list_3"
"1uZ4i",".ุงูุฑุฌุงุก ุชุณููุฉ ูุฐู ุงูุตูุฑุฉ",117.129,20201,"ูุฌูุฉ",1417,119.567,3,"ูุง ูุฏู ุชุทุงุจู ูุฐุง ุงูุงุณู ูุน ูุฐู ุงูุตูุฑุฉุ",3,"VCS_360.png",3,"trial_lists/trial_list_3"
"1uZ4i",".ุงูุฑุฌุงุก ุชุณููุฉ ูุฐู ุงูุตูุฑุฉ",138.186,18585,"ูุฌูุฉ ุงููุฑุจุน",2207,141.414,2,"ูุง ูุฏู ุชุทุงุจู ูุฐุง ุงูุงุณู ูุน ูุฐู ุงูุตูุฑุฉุ",4,"VCS_270.png",3,"trial_lists/trial_list_3"
"1uZ4i",".ุงูุฑุฌุงุก ุชุณููุฉ ูุฐู ุงูุตูุฑุฉ",164.69,23250,"ุฏุฑุน ูููุญุงุฑุจ",3390,169.1,3,"ูุง ูุฏู ุชุทุงุจู ูุฐุง ุงูุงุณู ูุน ูุฐู ุงูุตูุฑุฉุ",5,"VCS_180.png",3,"trial_lists/trial_list_3"
"1uZ4i",".ุงูุฑุฌุงุก ุชุณููุฉ ูุฐู ุงูุตูุฑุฉ",203.143,34014,"ูุณุชุงู ูุตูุฑ",1184,205.348,3,"ูุง ูุฏู ุชุทุงุจู ูุฐุง ุงูุงุณู ูุน ูุฐู ุงูุตูุฑุฉุ",6,"VCS_90.png",3,"trial_lists/trial_list_3"
"1uZ4i",".ุงูุฑุฌุงุก ุชุณููุฉ ูุฐู ุงูุตูุฑุฉ",229.014,23631,"ุฑุฌู ุจุทุฉ",2064,232.101,2,"ูุง ูุฏู ุชุทุงุจู ูุฐุง ุงูุงุณู ูุน ูุฐู ุงูุตูุฑุฉุ",7,"VCS_300.png",3,"trial_lists/trial_list_3"
"1uZ4i",".ุงูุฑุฌุงุก ุชุณููุฉ ูุฐู ุงูุตูุฑุฉ",242.677,10545,"ูุฑุจุน",1413,245.112,4,"ูุง ูุฏู ุชุทุงุจู ูุฐุง ุงูุงุณู ูุน ูุฐู ุงูุตูุฑุฉุ",8,"square.png",3,"trial_lists/trial_list_3"
"1uZ4i",".ุงูุฑุฌุงุก ุชุณููุฉ ูุฐู ุงูุตูุฑุฉ",259.722,14583,"ููุฒู",1799,262.543,2,"ูุง ูุฏู ุชุทุงุจู ูุฐุง ุงูุงุณู ูุน ูุฐู ุงูุตูุฑุฉุ",9,"VCS_210.png",3,"trial_lists/trial_list_3"
"1uZ4i",".ุงูุฑุฌุงุก ุชุณููุฉ ูุฐู ุงูุตูุฑุฉ",276.073,13498,"ุฐุฆุจ",1105,278.2,4,"ูุง ูุฏู ุชุทุงุจู ูุฐุง ุงูุงุณู ูุน ูุฐู ุงูุตูุฑุฉุ",10,"dog.png",3,"trial_lists/trial_list_3"
"1uZ4i",".ุงูุฑุฌุงุก ุชุณููุฉ ูุฐู ุงูุตูุฑุฉ",289.594,11367,"ุจูุนุฉ ูู ุงูุญุจุฑ",3101,293.713,3,"ูุง ูุฏู ุชุทุงุจู ูุฐุง ุงูุงุณู ูุน ูุฐู ุงูุตูุฑุฉุ",11,"VCS_60.png",3,"trial_lists/trial_list_3"
"1uZ4i",".ุงูุฑุฌุงุก ุชุณููุฉ ูุฐู ุงูุตูุฑุฉ",355.298,61556,"ูุฌูุฉ ุงููููุฌุง",5685,362.001,1,"ูุง ูุฏู ุชุทุงุจู ูุฐุง ุงูุงุณู ูุน ูุฐู ุงูุตูุฑุฉุ",12,"VCS_330.png",3,"trial_lists/trial_list_3"
"1uZ4i",".ุงูุฑุฌุงุก ุชุณููุฉ ูุฐู ุงูุตูุฑุฉ",375.351,13322,"ุจูุนุฉ ูู ุงูุนุตูุฑ",1755,378.126,3,"ูุง ูุฏู ุชุทุงุจู ูุฐุง ุงูุงุณู ูุน ูุฐู ุงูุตูุฑุฉุ",13,"VCS_30.png",3,"trial_lists/trial_list_3"
"1uZ4i",".ุงูุฑุฌุงุก ุชุณููุฉ ูุฐู ุงูุตูุฑุฉ",384.15,5998,"ูุซูุซ",1203,386.377,4,"ูุง ูุฏู ุชุทุงุจู ูุฐุง ุงูุงุณู ูุน ูุฐู ุงูุตูุฑุฉุ",14,"triangle.png",3,"trial_lists/trial_list_3"
"1uZ4i",".ุงูุฑุฌุงุก ุชุณููุฉ ูุฐู ุงูุตูุฑุฉ",511.812,125407,"ูุฌูุฉ ุงููุฑุจุน",1244,514.075,1,"ูุง ูุฏู ุชุทุงุจู ูุฐุง ุงูุงุณู ูุน ูุฐู ุงูุตูุฑุฉุ",15,"VCS_240.png",3,"trial_lists/trial_list_3"
"1VcdQ",".ุงูุฑุฌุงุก ุชุณููุฉ ูุฐู ุงูุตูุฑุฉ",35.69,14214,"ุตูุฑุฉ",8199,44.903,2,"ูุง ูุฏู ุชุทุงุจู ูุฐุง ุงูุงุณู ูุน ูุฐู ุงูุตูุฑุฉุ",1,"square.png",1,"trial_lists/trial_list_1"
"1VcdQ",".ุงูุฑุฌุงุก ุชุณููุฉ ูุฐู ุงูุตูุฑุฉ",55.241,10304,"ูุฌูู",2565,58.82,2,"ูุง ูุฏู ุชุทุงุจู ูุฐุง ุงูุงุณู ูุน ูุฐู ุงูุตูุฑุฉุ",2,"VCS_340.png",1,"trial_lists/trial_list_1"
"1VcdQ",".ุงูุฑุฌุงุก ุชุณููุฉ ูุฐู ุงูุตูุฑุฉ",76.395,17532,"ุฃููุจุง",3289,80.7,3,"ูุง ูุฏู ุชุทุงุจู ูุฐุง ุงูุงุณู ูุน ูุฐู ุงูุตูุฑุฉุ",3,"VCS_100.png",1,"trial_lists/trial_list_1"
"1VcdQ",".ุงูุฑุฌุงุก ุชุณููุฉ ูุฐู ุงูุตูุฑุฉ",113.595,32858,"ุบูุฑ ููุชุธู",1023,115.63,1,"ูุง ูุฏู ุชุทุงุจู ูุฐุง ุงูุงุณู ูุน ูุฐู ุงูุตูุฑุฉุ",4,"VCS_190.png",1,"trial_lists/trial_list_1"
"1VcdQ",".ุงูุฑุฌุงุก ุชุณููุฉ ูุฐู ุงูุตูุฑุฉ",124.667,9002,"ูุฌูู",927,126.608,1,"ูุง ูุฏู ุชุทุงุจู ูุฐุง ุงูุงุณู ูุน ูุฐู ุงูุตูุฑุฉุ",5,"VCS_310.png",1,"trial_lists/trial_list_1"
"1VcdQ",".ุงูุฑุฌุงุก ุชุณููุฉ ูุฐู ุงูุตูุฑุฉ",134.234,7588,"ููุจ",2290,137.537,3,"ูุง ูุฏู ุชุทุงุจู ูุฐุง ุงูุงุณู ูุน ูุฐู ุงูุตูุฑุฉุ",6,"dog.png",1,"trial_lists/trial_list_1"
"1VcdQ",".ุงูุฑุฌุงุก ุชุณููุฉ ูุฐู ุงูุตูุฑุฉ",147.229,9653,"ุฑุฃุณ ุญููุงู",964,149.204,1,"ูุง ูุฏู ุชุทุงุจู ูุฐุง ุงูุงุณู ูุน ูุฐู ุงูุตูุฑุฉุ",7,"VCS_160.png",1,"trial_lists/trial_list_1"
"1VcdQ",".ุงูุฑุฌุงุก ุชุณููุฉ ูุฐู ุงูุตูุฑุฉ",160.588,11356,"ูุฑุฏู",998,162.598,1,"ูุง ูุฏู ุชุทุงุจู ูุฐุง ุงูุงุณู ูุน ูุฐู ุงูุตูุฑุฉุ",8,"VCS_40.png",1,"trial_lists/trial_list_1"
"1VcdQ",".ุงูุฑุฌุงุก ุชุณููุฉ ูุฐู ุงูุตูุฑุฉ",176.626,13986,"ูุฌูู ูุฏููุง ูุงุนุฏู",1672,179.312,2,"ูุง ูุฏู ุชุทุงุจู ูุฐุง ุงูุงุณู ูุน ูุฐู ุงูุตูุฑุฉุ",9,"VCS_250.png",1,"trial_lists/trial_list_1"
"1VcdQ",".ุงูุฑุฌุงุก ุชุณููุฉ ูุฐู ุงูุตูุฑุฉ",191.746,12398,"ูุฌูู ูุฏููุง ูุงุนุฏู",1233,193.992,2,"ูุง ูุฏู ุชุทุงุจู ูุฐุง ุงูุงุณู ูุน ูุฐู ุงูุตูุฑุฉุ",10,"VCS_280.png",1,"trial_lists/trial_list_1"
"1VcdQ",".ุงูุฑุฌุงุก ุชุณููุฉ ูุฐู ุงูุตูุฑุฉ",199.591,5562,"ูุซูุซ",3151,203.758,4,"ูุง ูุฏู ุชุทุงุจู ูุฐุง ุงูุงุณู ูุน ูุฐู ุงูุตูุฑุฉุ",11,"triangle.png",1,"trial_lists/trial_list_1"
"1VcdQ",".ุงูุฑุฌุงุก ุชุณููุฉ ูุฐู ุงูุตูุฑุฉ",211.835,8035,"ูุฌูู",1220,214.069,2,"ูุง ูุฏู ุชุทุงุจู ูุฐุง ุงูุงุณู ูุน ูุฐู ุงูุตูุฑุฉุ",12,"VCS_10.png",1,"trial_lists/trial_list_1"
"1VcdQ",".ุงูุฑุฌุงุก ุชุณููุฉ ูุฐู ุงูุตูุฑุฉ",219.679,5571,"ุงููุจุง",1335,222.029,3,"ูุง ูุฏู ุชุทุงุจู ูุฐุง ุงูุงุณู ูุน ูุฐู ุงูุตูุฑุฉุ",13,"VCS_70.png",1,"trial_lists/trial_list_1"
"1VcdQ",".ุงูุฑุฌุงุก ุชุณููุฉ ูุฐู ุงูุตูุฑุฉ",229.369,7298,"ุฑุงุณ ูุทู",1863,232.245,2,"ูุง ูุฏู ุชุทุงุจู ูุฐุง ุงูุงุณู ูุน ูุฐู ุงูุตูุฑุฉุ",14,"VCS_130.png",1,"trial_lists/trial_list_1"
"1VcdQ",".ุงูุฑุฌุงุก ุชุณููุฉ ูุฐู ุงูุตูุฑุฉ",241.984,9698,"ูุฌูู ุฑููุจู",1464,244.462,2,"ูุง ูุฏู ุชุทุงุจู ูุฐุง ุงูุงุณู ูุน ูุฐู ุงูุตูุฑุฉุ",15,"VCS_220.png",1,"trial_lists/trial_list_1"
"1WpqD",".ุงูุฑุฌุงุก ุชุณููุฉ ูุฐู ุงูุตูุฑุฉ",92.78,29851,"ูุฌูุฉ โุจุง ุฃุฑุจุน ุฒูุงูุง",9349,103.14,4,"ูุง ูุฏู ุชุทุงุจู ูุฐุง ุงูุงุณู ูุน ูุฐู ุงูุตูุฑุฉุ",1,"VCS_350.png",2,"trial_lists/trial_list_2"
"1WpqD",".ุงูุฑุฌุงุก ุชุณููุฉ ูุฐู ุงูุตูุฑุฉ",196.414,93240,"โโูุฑุจุน ุฎูุงุณู โูููุฌ โูู ุฎุทูุชู",1346,198.767,4,"ูุง ูุฏู ุชุทุงุจู ูุฐุง ุงูุงุณู ูุน ูุฐู ุงูุตูุฑุฉุ",2,"VCS_200.png",2,"trial_lists/trial_list_2"
"1WpqD",".ุงูุฑุฌุงุก ุชุณููุฉ ูุฐู ุงูุตูุฑุฉ",325.757,126960,"ุดูู โุฌุณู ุงูุบูุชุงุฑ",2885,329.656,3,"ูุง ูุฏู ุชุทุงุจู ูุฐุง ุงูุงุณู ูุน ูุฐู ุงูุตูุฑุฉุ",3,"VCS_110.png",2,"trial_lists/trial_list_2"
"1WpqD",".ุงูุฑุฌุงุก ุชุณููุฉ ูุฐู ุงูุตูุฑุฉ",417.864,88166,"โ โุดูู ุงููุฌูุฉ ุจุฎูุณ ุฒููุฉ what is for the car the most talking",12473,431.357,1,"ูุง ูุฏู ุชุทุงุจู ูุฐุง ุงูุงุณู ูุน ูุฐู ุงูุตูุฑุฉุ",4,"VCS_230.png",2,"trial_lists/trial_list_2"
"1WpqD",".ุงูุฑุฌุงุก ุชุณููุฉ ูุฐู ุงูุตูุฑุฉ",446.948,15552,"โุฌุณูู ุงูุฌูุชุงุฑ ูุขุณูู ููุงุนุฏ ุงููุณุชููู",7507,455.459,1,"ูุง ูุฏู ุชุทุงุจู ูุฐุง ุงูุงุณู ูุน ูุฐู ุงูุตูุฑุฉุ",5,"VCS_140.png",2,"trial_lists/trial_list_2"
"1WpqD",".ุงูุฑุฌุงุก ุชุณููุฉ ูุฐู ุงูุตูุฑุฉ",500.236,44747,"โ ูุฌูุฉ ูุฃุณูู ุงููุงุนุฏุฉ โูุณุชููู",4922,506.165,4,"ูุง ูุฏู ุชุทุงุจู ูุฐุง ุงูุงุณู ูุน ูุฐู ุงูุตูุฑุฉุ",6,"VCS_290.png",2,"trial_lists/trial_list_2"
"1WpqD",".ุงูุฑุฌุงุก ุชุณููุฉ ูุฐู ุงูุตูุฑุฉ",568.562,62362,"ุฌุณุฏ ุงูุฌูุชุงุฑ",5374,574.946,2,"ูุง ูุฏู ุชุทุงุจู ูุฐุง ุงูุงุณู ูุน ูุฐู ุงูุตูุฑุฉุ",7,"VCS_80.png",2,"trial_lists/trial_list_2"
"1WpqD",".ุงูุฑุฌุงุก ุชุณููุฉ ูุฐู ุงูุตูุฑุฉ",585.406,10420,"โูุซูุซ",3696,590.108,4,"ูุง ูุฏู ุชุทุงุจู ูุฐุง ุงูุงุณู ูุน ูุฐู ุงูุตูุฑุฉุ",8,"triangle.png",2,"trial_lists/trial_list_2"
"1WpqD",".ุงูุฑุฌุงุก ุชุณููุฉ ูุฐู ุงูุตูุฑุฉ",665.193,75052,"โ โุดูู ูุฌูุฉ ูุฏููุง ุฎูุณุฉ โุฒูุงูุง",4385,670.585,2,"ูุง ูุฏู ุชุทุงุจู ูุฐุง ุงูุงุณู ูุน ูุฐู ุงูุตูุฑุฉุ",9,"VCS_260.png",2,"trial_lists/trial_list_2"
"2A5TL",".ุงูุฑุฌุงุก ุชุณููุฉ ูุฐู ุงูุตูุฑุฉ",58.352,20462,"ูุฌูุฉ ุบูุฑ ููุชููุฉ",27567,86.95,3,"ูุง ูุฏู ุชุทุงุจู ูุฐุง ุงูุงุณู ูุน ูุฐู ุงูุตูุฑุฉุ",1,"VCS_310.png",1,"trial_lists/trial_list_1"
"2A5TL",".ุงูุฑุฌุงุก ุชุณููุฉ ูุฐู ุงูุตูุฑุฉ",103.262,16249,"ูุฌู ุฏุจ ูู ุฏูู ููุงูุญ",2080,106.363,1,"ูุง ูุฏู ุชุทุงุจู ูุฐุง ุงูุงุณู ูุน ูุฐู ุงูุตูุฑุฉุ",2,"VCS_160.png",1,"trial_lists/trial_list_1"
"2A5TL",".ุงูุฑุฌุงุก ุชุณููุฉ ูุฐู ุงูุตูุฑุฉ",115.653,9250,"ุฐุฆุจ",2635,119.307,4,"ูุง ูุฏู ุชุทุงุจู ูุฐุง ุงูุงุณู ูุน ูุฐู ุงูุตูุฑุฉุ",3,"dog.png",1,"trial_lists/trial_list_1"
"2C9tE",".ุงูุฑุฌุงุก ุชุณููุฉ ูุฐู ุงูุตูุฑุฉ",11.525,5744,"ูุฑุจุน",11029,23.573,4,"ูุง ูุฏู ุชุทุงุจู ูุฐุง ุงูุงุณู ูุน ูุฐู ุงูุตูุฑุฉุ",1,"square.png",3,"trial_lists/trial_list_3"
"2C9tE",".ุงูุฑุฌุงุก ุชุณููุฉ ูุฐู ุงูุตูุฑุฉ",32.65,9045,"ุงุฑูุจ",1372,35.032,1,"ูุง ูุฏู ุชุทุงุจู ูุฐุง ุงูุงุณู ูุน ูุฐู ุงูุตูุฑุฉุ",2,"VCS_90.png",3,"trial_lists/trial_list_3"
"2C9tE",".ุงูุฑุฌุงุก ุชุณููุฉ ูุฐู ุงูุตูุฑุฉ",40.115,5058,"ููุจ",1919,43.047,4,"ูุง ูุฏู ุชุทุงุจู ูุฐุง ุงูุงุณู ูุน ูุฐู ุงูุตูุฑุฉุ",3,"dog.png",3,"trial_lists/trial_list_3"
"2C9tE",".ุงูุฑุฌุงุก ุชุณููุฉ ูุฐู ุงูุตูุฑุฉ",48.384,5314,"ูุฌูุฉ",5647,55.04,2,"ูุง ูุฏู ุชุทุงุจู ูุฐุง ุงูุงุณู ูุน ูุฐู ุงูุตูุฑุฉุ",4,"VCS_300.png",3,"trial_lists/trial_list_3"
"2C9tE",".ุงูุฑุฌุงุก ุชุณููุฉ ูุฐู ุงูุตูุฑุฉ",59.999,4937,"ูุฌูุฉ",746,61.755,3,"ูุง ูุฏู ุชุทุงุจู ูุฐุง ุงูุงุณู ูุน ูุฐู ุงูุตูุฑุฉุ",5,"VCS_360.png",3,"trial_lists/trial_list_3"
"2C9tE",".ุงูุฑุฌุงุก ุชุณููุฉ ูุฐู ุงูุตูุฑุฉ",67.765,5987,"ูุฌูุฉุฉ",3354,72.128,2,"ูุง ูุฏู ุชุทุงุจู ูุฐุง ุงูุงุณู ูุน ูุฐู ุงูุตูุฑุฉุ",6,"VCS_270.png",3,"trial_lists/trial_list_3"
"2C9tE",".ุงูุฑุฌุงุก ุชุณููุฉ ูุฐู ุงูุตูุฑุฉ",81.262,9113,"ูุฌูุฉ",2420,84.691,3,"ูุง ูุฏู ุชุทุงุจู ูุฐุง ุงูุงุณู ูุน ูุฐู ุงูุตูุฑุฉุ",7,"VCS_330.png",3,"trial_lists/trial_list_3"
"2C9tE",".ุงูุฑุฌุงุก ุชุณููุฉ ูุฐู ุงูุตูุฑุฉ",92.386,7676,"ูุฌูุฉ",4418,97.812,1,"ูุง ูุฏู ุชุทุงุจู ูุฐุง ุงูุงุณู ูุน ูุฐู ุงูุตูุฑุฉุ",8,"VCS_240.png",3,"trial_lists/trial_list_3"
"2C9tE",".ุงูุฑุฌุงุก ุชุณููุฉ ูุฐู ุงูุตูุฑุฉ",106.782,8944,"ุฎูุงุณู",943,108.734,2,"ูุง ูุฏู ุชุทุงุจู ูุฐุง ุงูุงุณู ูุน ูุฐู ุงูุตูุฑุฉุ",9,"VCS_210.png",3,"trial_lists/trial_list_3"
"2C9tE",".ุงูุฑุฌุงุก ุชุณููุฉ ูุฐู ุงูุตูุฑุฉ",138.517,29764,"ุงุดุงุฑุฉ ุฒุงุฆุฏ",2176,141.704,2,"ูุง ูุฏู ุชุทุงุจู ูุฐุง ุงูุงุณู ูุน ูุฐู ุงูุตูุฑุฉุ",10,"VCS_60.png",3,"trial_lists/trial_list_3"
"2C9tE",".ุงูุฑุฌุงุก ุชุณููุฉ ูุฐู ุงูุตูุฑุฉ",154.594,12868,"ูุทุฉ",1925,157.531,1,"ูุง ูุฏู ุชุทุงุจู ูุฐุง ุงูุงุณู ูุน ูุฐู ุงูุตูุฑุฉุ",11,"VCS_150.png",3,"trial_lists/trial_list_3"
"2C9tE",".ุงูุฑุฌุงุก ุชุณููุฉ ูุฐู ุงูุตูุฑุฉ",212.726,55179,"ูุฑุจุน",642,214.376,1,"ูุง ูุฏู ุชุทุงุจู ูุฐุง ุงูุงุณู ูุน ูุฐู ุงูุตูุฑุฉุ",12,"VCS_180.png",3,"trial_lists/trial_list_3"
"2C9tE",".ุงูุฑุฌุงุก ุชุณููุฉ ูุฐู ุงูุตูุฑุฉ",219.782,5382,"ูุฌูุฉ",1198,221.99,1,"ูุง ูุฏู ุชุทุงุจู ูุฐุง ุงูุงุณู ูุน ูุฐู ุงูุตูุฑุฉุ",13,"VCS_30.png",3,"trial_lists/trial_list_3"
"2C9tE",".ุงูุฑุฌุงุก ุชุณููุฉ ูุฐู ุงูุตูุฑุฉ",226.363,4354,"ุงุฑูุจ",1184,228.556,1,"ูุง ูุฏู ุชุทุงุจู ูุฐุง ุงูุงุณู ูุน ูุฐู ุงูุตูุฑุฉุ",14,"VCS_120.png",3,"trial_lists/trial_list_3"
"2C9tE",".ุงูุฑุฌุงุก ุชุณููุฉ ูุฐู ุงูุตูุฑุฉ",233.329,4749,"ูุซูุซ",576,234.915,4,"ูุง ูุฏู ุชุทุงุจู ูุฐุง ุงูุงุณู ูุน ูุฐู ุงูุตูุฑุฉุ",15,"triangle.png",3,"trial_lists/trial_list_3"
"2Cgbq",".ุงูุฑุฌุงุก ุชุณููุฉ ูุฐู ุงูุตูุฑุฉ",18.173,10047,"Star",5784,24.978,3,"ูุง ูุฏู ุชุทุงุจู ูุฐุง ุงูุงุณู ูุน ูุฐู ุงูุตูุฑุฉุ",1,"VCS_240.png",3,"trial_lists/trial_list_3"
"2Cgbq",".ุงูุฑุฌุงุก ุชุณููุฉ ูุฐู ุงูุตูุฑุฉ",37.307,12291,"Necklase",3337,41.658,3,"ูุง ูุฏู ุชุทุงุจู ูุฐุง ุงูุงุณู ูุน ูุฐู ุงูุตูุฑุฉุ",2,"VCS_120.png",3,"trial_lists/trial_list_3"
"2Cgbq",".ุงูุฑุฌุงุก ุชุณููุฉ ูุฐู ุงูุตูุฑุฉ",52.181,10482,"Ninga",1182,54.378,4,"ูุง ูุฏู ุชุทุงุจู ูุฐุง ุงูุงุณู ูุน ูุฐู ุงูุตูุฑุฉุ",3,"VCS_360.png",3,"trial_lists/trial_list_3"
"2Cgbq",".ุงูุฑุฌุงุก ุชุณููุฉ ูุฐู ุงูุตูุฑุฉ",70.971,16562,"Pot",1232,73.216,2,"ูุง ูุฏู ุชุทุงุจู ูุฐุง ุงูุงุณู ูุน ูุฐู ุงูุตูุฑุฉุ",4,"VCS_210.png",3,"trial_lists/trial_list_3"
"2Cgbq",".ุงูุฑุฌุงุก ุชุณููุฉ ูุฐู ุงูุตูุฑุฉ",77.794,4535,"Traingle",952,79.759,4,"ูุง ูุฏู ุชุทุงุจู ูุฐุง ุงูุงุณู ูุน ูุฐู ุงูุตูุฑุฉุ",5,"triangle.png",3,"trial_lists/trial_list_3"
"2Cgbq",".ุงูุฑุฌุงุก ุชุณููุฉ ูุฐู ุงูุตูุฑุฉ",93.929,14136,"Ameaba",1269,96.21,2,"ูุง ูุฏู ุชุทุงุจู ูุฐุง ุงูุงุณู ูุน ูุฐู ุงูุตูุฑุฉุ",6,"VCS_30.png",3,"trial_lists/trial_list_3"
"2Cgbq",".ุงูุฑุฌุงุก ุชุณููุฉ ูุฐู ุงูุตูุฑุฉ",102.583,6348,"Star pot",4064,107.658,2,"ูุง ูุฏู ุชุทุงุจู ูุฐุง ุงูุงุณู ูุน ูุฐู ุงูุตูุฑุฉุ",7,"VCS_300.png",3,"trial_lists/trial_list_3"
"2Cgbq",".ุงูุฑุฌุงุก ุชุณููุฉ ูุฐู ุงูุตูุฑุฉ",117.389,9701,"Dog fox",3333,121.739,3,"ูุง ูุฏู ุชุทุงุจู ูุฐุง ุงูุงุณู ูุน ูุฐู ุงูุตูุฑุฉุ",8,"dog.png",3,"trial_lists/trial_list_3"
"2Cgbq",".ุงูุฑุฌุงุก ุชุณููุฉ ูุฐู ุงูุตูุฑุฉ",128.052,6279,"Ola",1303,130.372,1,"ูุง ูุฏู ุชุทุงุจู ูุฐุง ุงูุงุณู ูุน ูุฐู ุงูุตูุฑุฉุ",9,"VCS_150.png",3,"trial_lists/trial_list_3"
"2Cgbq",".ุงูุฑุฌุงุก ุชุณููุฉ ูุฐู ุงูุตูุฑุฉ",134.831,4419,"!",803,136.649,1,"ูุง ูุฏู ุชุทุงุจู ูุฐุง ุงูุงุณู ูุน ูุฐู ุงูุตูุฑุฉุ",10,"VCS_180.png",3,"trial_lists/trial_list_3"
"2Cgbq",".ุงูุฑุฌุงุก ุชุณููุฉ ูุฐู ุงูุตูุฑุฉ",146.457,9757,"Body shape",1004,148.473,1,"ูุง ูุฏู ุชุทุงุจู ูุฐุง ุงูุงุณู ูุน ูุฐู ุงูุตูุฑุฉุ",11,"VCS_90.png",3,"trial_lists/trial_list_3"
"2Cgbq",".ุงูุฑุฌุงุก ุชุณููุฉ ูุฐู ุงูุตูุฑุฉ",155.287,6777,"Star",1657,157.957,3,"ูุง ูุฏู ุชุทุงุจู ูุฐุง ุงูุงุณู ูุน ูุฐู ุงูุตูุฑุฉุ",12,"VCS_330.png",3,"trial_lists/trial_list_3"
"2Cgbq",".ุงูุฑุฌุงุก ุชุณููุฉ ูุฐู ุงูุตูุฑุฉ",164.768,6770,"Star square",1297,167.079,2,"ูุง ูุฏู ุชุทุงุจู ูุฐุง ุงูุงุณู ูุน ูุฐู ุงูุตูุฑุฉุ",13,"VCS_270.png",3,"trial_lists/trial_list_3"
"2Cgbq",".ุงูุฑุฌุงุก ุชุณููุฉ ูุฐู ุงูุตูุฑุฉ",175.122,8007,".",1499,177.629,1,"ูุง ูุฏู ุชุทุงุจู ูุฐุง ุงูุงุณู ูุน ูุฐู ุงูุตูุฑุฉุ",14,"VCS_60.png",3,"trial_lists/trial_list_3"
"2Cgbq",".ุงูุฑุฌุงุก ุชุณููุฉ ูุฐู ุงูุตูุฑุฉ",183.941,6278,"Frame",917,185.874,4,"ูุง ูุฏู ุชุทุงุจู ูุฐุง ุงูุงุณู ูุน ูุฐู ุงูุตูุฑุฉุ",15,"square.png",3,"trial_lists/trial_list_3"
"2CVac",".ุงูุฑุฌุงุก ุชุณููุฉ ูุฐู ุงูุตูุฑุฉ",24.375,12894,"ูุฌูุฉ ูุฑุจุนุฉ",17552,42.939,2,"ูุง ูุฏู ุชุทุงุจู ูุฐุง ุงูุงุณู ูุน ูุฐู ุงูุตูุฑุฉุ",1,"VCS_260.png",2,"trial_lists/trial_list_2"
"2CVac",".ุงูุฑุฌุงุก ุชุณููุฉ ูุฐู ุงูุตูุฑุฉ",54.196,11225,"ูุฌูุฉ ุณุฏุงุฏุณูุฉ",2273,57.475,2,"ูุง ูุฏู ุชุทุงุจู ูุฐุง ุงูุงุณู ูุน ูุฐู ุงูุตูุฑุฉุ",2,"VCS_230.png",2,"trial_lists/trial_list_2"
"2CVac",".ุงูุฑุฌุงุก ุชุณููุฉ ูุฐู ุงูุตูุฑุฉ",64.83,7322,"ุฒุงุฆุฏ",4065,69.901,3,"ูุง ูุฏู ุชุทุงุจู ูุฐุง ุงูุงุณู ูุน ูุฐู ุงูุตูุฑุฉุ",3,"VCS_20.png",2,"trial_lists/trial_list_2"
"2CVac",".ุงูุฑุฌุงุก ุชุณููุฉ ูุฐู ุงูุตูุฑุฉ",75.273,5341,"ุฏุงุฆุฑู",1419,77.697,1,"ูุง ูุฏู ุชุทุงุจู ูุฐุง ุงูุงุณู ูุน ูุฐู ุงูุตูุฑุฉุ",4,"VCS_200.png",2,"trial_lists/trial_list_2"
"2CVac",".ุงูุฑุฌุงุก ุชุณููุฉ ูุฐู ุงูุตูุฑุฉ",85.21,7483,"ุฅูุณ",1975,88.19,3,"ูุง ูุฏู ุชุทุงุจู ูุฐุง ุงูุงุณู ูุน ูุฐู ุงูุตูุฑุฉุ",5,"VCS_50.png",2,"trial_lists/trial_list_2"
"2CVac",".ุงูุฑุฌุงุก ุชุณููุฉ ูุฐู ุงูุตูุฑุฉ",92.026,3804,"ุงุฑูุจ",2024,95.056,3,"ูุง ูุฏู ุชุทุงุจู ูุฐุง ุงูุงุณู ูุน ูุฐู ุงูุตูุฑุฉุ",6,"VCS_110.png",2,"trial_lists/trial_list_2"
"2CVac",".ุงูุฑุฌุงุก ุชุณููุฉ ูุฐู ุงูุตูุฑุฉ",98.884,3798,"ุงุฑูุจ",1299,101.188,2,"ูุง ูุฏู ุชุทุงุจู ูุฐุง ุงูุงุณู ูุน ูุฐู ุงูุตูุฑุฉุ",7,"VCS_140.png",2,"trial_lists/trial_list_2"
"2CVac",".ุงูุฑุฌุงุก ุชุณููุฉ ูุฐู ุงูุตูุฑุฉ",107.527,6311,"ูุงุฒู",1106,109.639,1,"ูุง ูุฏู ุชุทุงุจู ูุฐุง ุงูุงุณู ูุน ูุฐู ุงูุตูุฑุฉุ",8,"VCS_170.png",2,"trial_lists/trial_list_2"
"2CVac",".ุงูุฑุฌุงุก ุชุณููุฉ ูุฐู ุงูุตูุฑุฉ",112.79,3119,"ูุฑุจุน",1453,115.25,4,"ูุง ูุฏู ุชุทุงุจู ูุฐุง ุงูุงุณู ูุน ูุฐู ุงูุตูุฑุฉุ",9,"square.png",2,"trial_lists/trial_list_2"
"2CVac",".ุงูุฑุฌุงุก ุชุณููุฉ ูุฐู ุงูุตูุฑุฉ",129.854,14575,"ูุฑุจุน ูุตู ูุฌูุฉ",3470,134.33,2,"ูุง ูุฏู ุชุทุงุจู ูุฐุง ุงูุงุณู ูุน ูุฐู ุงูุตูุฑุฉุ",10,"VCS_290.png",2,"trial_lists/trial_list_2"
"2CVac",".ุงูุฑุฌุงุก ุชุณููุฉ ูุฐู ุงูุตูุฑุฉ",160.279,25917,"ุงููุจ",1327,162.612,1,"ูุง ูุฏู ุชุทุงุจู ูุฐุง ุงูุงุณู ูุน ูุฐู ุงูุตูุฑุฉุ",11,"VCS_80.png",2,"trial_lists/trial_list_2"
"2CVac",".ุงูุฑุฌุงุก ุชุณููุฉ ูุฐู ุงูุตูุฑุฉ",167.313,4669,"ูุซูุซ",3719,172.037,4,"ูุง ูุฏู ุชุทุงุจู ูุฐุง ุงูุงุณู ูุน ูุฐู ุงูุตูุฑุฉุ",12,"triangle.png",2,"trial_lists/trial_list_2"
"2CVac",".ุงูุฑุฌุงุก ุชุณููุฉ ูุฐู ุงูุตูุฑุฉ",179.373,7303,"ุฐุฆุจ",1768,182.146,3,"ูุง ูุฏู ุชุทุงุจู ูุฐุง ุงูุงุณู ูุน ูุฐู ุงูุตูุฑุฉุ",13,"dog.png",2,"trial_lists/trial_list_2"
"2CVac",".ุงูุฑุฌุงุก ุชุณููุฉ ูุฐู ุงูุตูุฑุฉ",185.545,3368,"ูุฌูุฉ",1685,188.236,3,"ูุง ูุฏู ุชุทุงุจู ูุฐุง ุงูุงุณู ูุน ูุฐู ุงูุตูุฑุฉุ",14,"VCS_350.png",2,"trial_lists/trial_list_2"
"2CVac",".ุงูุฑุฌุงุก ุชุณููุฉ ูุฐู ุงูุตูุฑุฉ",193.402,5134,"ุตููุจ",1910,196.319,3,"ูุง ูุฏู ุชุทุงุจู ูุฐุง ุงูุงุณู ูุน ูุฐู ุงูุตูุฑุฉุ",15,"VCS_320.png",2,"trial_lists/trial_list_2"
"2JE0c",".ุงูุฑุฌุงุก ุชุณููุฉ ูุฐู ุงูุตูุฑุฉ",27.386,19052,"ุดุงุฑุฉ",21939,50.359,2,"ูุง ูุฏู ุชุทุงุจู ูุฐุง ุงูุงุณู ูุน ูุฐู ุงูุตูุฑุฉุ",1,"VCS_180.png",3,"trial_lists/trial_list_3"
"2JE0c",".ุงูุฑุฌุงุก ุชุณููุฉ ูุฐู ุงูุตูุฑุฉ",78.752,28325,"ุณุจููุฑ",3783,83.558,1,"ูุง ูุฏู ุชุทุงุจู ูุฐุง ุงูุงุณู ูุน ูุฐู ุงูุตูุฑุฉุ",2,"VCS_30.png",3,"trial_lists/trial_list_3"
"2JE0c",".ุงูุฑุฌุงุก ุชุณููุฉ ูุฐู ุงูุตูุฑุฉ",96.084,12484,"ุจุฑูุงุฒ ุตูุฑุฉ",3843,100.951,2,"ูุง ูุฏู ุชุทุงุจู ูุฐุง ุงูุงุณู ูุน ูุฐู ุงูุตูุฑุฉุ",3,"square.png",3,"trial_lists/trial_list_3"
"2JE0c",".ุงูุฑุฌุงุก ุชุณููุฉ ูุฐู ุงูุตูุฑุฉ",150.111,49117,"ูุจุนุฉ ุงูุทุจุงุฎ",1517,152.656,1,"ูุง ูุฏู ุชุทุงุจู ูุฐุง ุงูุงุณู ูุน ูุฐู ุงูุตูุฑุฉุ",4,"VCS_240.png",3,"trial_lists/trial_list_3"
"2JE0c",".ุงูุฑุฌุงุก ุชุณููุฉ ูุฐู ุงูุตูุฑุฉ",161.477,8774,"ุชุงุฌ",1943,164.446,2,"ูุง ูุฏู ุชุทุงุจู ูุฐุง ุงูุงุณู ูุน ูุฐู ุงูุตูุฑุฉุ",5,"VCS_210.png",3,"trial_lists/trial_list_3"
"2JE0c",".ุงูุฑุฌุงุก ุชุณููุฉ ูุฐู ุงูุตูุฑุฉ",177.765,13276,"ูุซูุซ",1413,180.204,3,"ูุง ูุฏู ุชุทุงุจู ูุฐุง ุงูุงุณู ูุน ูุฐู ุงูุตูุฑุฉุ",6,"triangle.png",3,"trial_lists/trial_list_3"
"2JE0c",".ุงูุฑุฌุงุก ุชุณููุฉ ูุฐู ุงูุตูุฑุฉ",204.705,24456,"ูุฑุฏุฉ",1288,207.019,1,"ูุง ูุฏู ุชุทุงุจู ูุฐุง ุงูุงุณู ูุน ูุฐู ุงูุตูุฑุฉุ",7,"VCS_60.png",3,"trial_lists/trial_list_3"
"2JE0c",".ุงูุฑุฌุงุก ุชุณููุฉ ูุฐู ุงูุตูุฑุฉ",214.907,7847,"ูุงุฒุฉ",3199,219.131,3,"ูุง ูุฏู ุชุทุงุจู ูุฐุง ุงูุงุณู ูุน ูุฐู ุงูุตูุฑุฉุ",8,"VCS_150.png",3,"trial_lists/trial_list_3"
"2JE0c",".ุงูุฑุฌุงุก ุชุณููุฉ ูุฐู ุงูุตูุฑุฉ",251.897,32720,"ูุง ุงุนูู",1106,254.03,1,"ูุง ูุฏู ุชุทุงุจู ูุฐุง ุงูุงุณู ูุน ูุฐู ุงูุตูุฑุฉุ",9,"VCS_270.png",3,"trial_lists/trial_list_3"
"2JE0c",".ุงูุฑุฌุงุก ุชุณููุฉ ูุฐู ุงูุตูุฑุฉ",269.469,15392,"ูุฌูุฉ ุงูุณูุงุก",1514,272.013,3,"ูุง ูุฏู ุชุทุงุจู ูุฐุง ุงูุงุณู ูุน ูุฐู ุงูุตูุฑุฉุ",10,"VCS_360.png",3,"trial_lists/trial_list_3"
"2JE0c",".ุงูุฑุฌุงุก ุชุณููุฉ ูุฐู ุงูุตูุฑุฉ",286.215,14156,"ุงุดุงุฑุฉ ุจุทู ุฎุงุฑู",1065,288.301,1,"ูุง ูุฏู ุชุทุงุจู ูุฐุง ุงูุงุณู ูุน ูุฐู ุงูุตูุฑุฉุ",11,"VCS_330.png",3,"trial_lists/trial_list_3"
"2JE0c",".ุงูุฑุฌุงุก ุชุณููุฉ ูุฐู ุงูุตูุฑุฉ",295.595,7251,"ุจููุฒุฉ",1044,297.666,3,"ูุง ูุฏู ุชุทุงุจู ูุฐุง ุงูุงุณู ูุน ูุฐู ุงูุตูุฑุฉุ",12,"VCS_90.png",3,"trial_lists/trial_list_3"
"2JE0c",".ุงูุฑุฌุงุก ุชุณููุฉ ูุฐู ุงูุตูุฑุฉ",337.297,39588,"ุฐุฆุจ ุจุฌุณู ููุจ ูู ุงูุฎูู",1078,339.412,3,"ูุง ูุฏู ุชุทุงุจู ูุฐุง ุงูุงุณู ูุน ูุฐู ุงูุตูุฑุฉุ",13,"dog.png",3,"trial_lists/trial_list_3"
"2JE0c",".ุงูุฑุฌุงุก ุชุณููุฉ ูุฐู ุงูุตูุฑุฉ",347.928,8464,"ูุงุฒุฉ",1915,350.865,2,"ูุง ูุฏู ุชุทุงุจู ูุฐุง ุงูุงุณู ูุน ูุฐู ุงูุตูุฑุฉุ",14,"VCS_120.png",3,"trial_lists/trial_list_3"
"2JE0c",".ุงูุฑุฌุงุก ุชุณููุฉ ูุฐู ุงูุตูุฑุฉ",362.015,11108,"ูุง ุงุนูู",1160,364.198,1,"ูุง ูุฏู ุชุทุงุจู ูุฐุง ุงูุงุณู ูุน ูุฐู ุงูุตูุฑุฉุ",15,"VCS_300.png",3,"trial_lists/trial_list_3"
"2KMab",".ุงูุฑุฌุงุก ุชุณููุฉ ูุฐู ุงูุตูุฑุฉ",186.39,32440,"ุฎูุงุณู",11973,199.393,2,"ูุง ูุฏู ุชุทุงุจู ูุฐุง ุงูุงุณู ูุน ูุฐู ุงูุตูุฑุฉุ",1,"VCS_270.png",3,"trial_lists/trial_list_3"
"2KMab",".ุงูุฑุฌุงุก ุชุณููุฉ ูุฐู ุงูุตูุฑุฉ",211.42,11979,"ููุจ",1856,214.289,4,"ูุง ูุฏู ุชุทุงุจู ูุฐุง ุงูุงุณู ูุน ูุฐู ุงูุตูุฑุฉุ",2,"dog.png",3,"trial_lists/trial_list_3"
"2KMab",".ุงูุฑุฌุงุก ุชุณููุฉ ูุฐู ุงูุตูุฑุฉ",244.503,30172,"ูุฒูุฑูุฉ",2376,247.894,3,"ูุง ูุฏู ุชุทุงุจู ูุฐุง ุงูุงุณู ูุน ูุฐู ุงูุตูุฑุฉุ",3,"VCS_150.png",3,"trial_lists/trial_list_3"
"2KMab",".ุงูุฑุฌุงุก ุชุณููุฉ ูุฐู ุงูุตูุฑุฉ",285.39,37445,"ุฎูุงุณู",1485,287.9,1,"ูุง ูุฏู ุชุทุงุจู ูุฐุง ุงูุงุณู ูุน ูุฐู ุงูุตูุฑุฉุ",4,"VCS_240.png",3,"trial_lists/trial_list_3"
"2KMab",".ุงูุฑุฌุงุก ุชุณููุฉ ูุฐู ุงูุตูุฑุฉ",321.174,33227,"ุฏุฑุน",2489,324.676,2,"ูุง ูุฏู ุชุทุงุจู ูุฐุง ุงูุงุณู ูุน ูุฐู ุงูุตูุฑุฉุ",5,"VCS_180.png",3,"trial_lists/trial_list_3"
"2KMab",".ุงูุฑุฌุงุก ุชุณููุฉ ูุฐู ุงูุตูุฑุฉ",342.697,17975,"ูุตู ูุฌูุฉ",1408,345.121,1,"ูุง ูุฏู ุชุทุงุจู ูุฐุง ุงูุงุณู ูุน ูุฐู ุงูุตูุฑุฉุ",6,"VCS_330.png",3,"trial_lists/trial_list_3"
"2nMFB",".ุงูุฑุฌุงุก ุชุณููุฉ ูุฐู ุงูุตูุฑุฉ",28.445,13216,"ูุฌูู ุชุนุจุงูู ุดููู",11956,41.41,4,"ูุง ูุฏู ุชุทุงุจู ูุฐุง ุงูุงุณู ูุน ูุฐู ุงูุตูุฑุฉุ",1,"VCS_240.png",3,"trial_lists/trial_list_3"
"2nMFB",".ุงูุฑุฌุงุก ุชุณููุฉ ูุฐู ุงูุตูุฑุฉ",51.341,9904,"ุดุจู ุดุฌุฑู ุงููุฑูุณูุณ",2186,54.532,4,"ูุง ูุฏู ุชุทุงุจู ูุฐุง ุงูุงุณู ูุน ูุฐู ุงูุตูุฑุฉุ",2,"VCS_300.png",3,"trial_lists/trial_list_3"
"2nMFB",".ุงูุฑุฌุงุก ุชุณููุฉ ูุฐู ุงูุตูุฑุฉ",59.926,5370,"ุฑุงุณ ุงูุฏุจ",1951,62.881,4,"ูุง ูุฏู ุชุทุงุจู ูุฐุง ุงูุงุณู ูุน ูุฐู ุงูุตูุฑุฉุ",3,"VCS_150.png",3,"trial_lists/trial_list_3"
"2nMFB",".ุงูุฑุฌุงุก ุชุณููุฉ ูุฐู ุงูุตูุฑุฉ",69.759,6854,"ูุนุฑูุด ุจุตุฑุงุญู",1869,72.632,2,"ูุง ูุฏู ุชุทุงุจู ูุฐุง ุงูุงุณู ูุน ูุฐู ุงูุตูุฑุฉุ",4,"VCS_180.png",3,"trial_lists/trial_list_3"
"2nMFB",".ุงูุฑุฌุงุก ุชุณููุฉ ูุฐู ุงูุตูุฑุฉ",78.707,6053,"ูุซูุซ",1345,81.056,4,"ูุง ูุฏู ุชุทุงุจู ูุฐุง ุงูุงุณู ูุน ูุฐู ุงูุตูุฑุฉุ",5,"triangle.png",3,"trial_lists/trial_list_3"
"2nMFB",".ุงูุฑุฌุงุก ุชุณููุฉ ูุฐู ุงูุตูุฑุฉ",89.108,8028,"ูุฌูู ุจุงุธุช ูู ุชุญุช",1376,91.488,4,"ูุง ูุฏู ุชุทุงุจู ูุฐุง ุงูุงุณู ูุน ูุฐู ุงูุตูุฑุฉุ",6,"VCS_330.png",3,"trial_lists/trial_list_3"
"2nMFB",".ุงูุฑุฌุงุก ุชุณููุฉ ูุฐู ุงูุตูุฑุฉ",95.221,3709,"ูุฑุจุน",1454,97.68,4,"ูุง ูุฏู ุชุทุงุจู ูุฐุง ุงูุงุณู ูุน ูุฐู ุงูุตูุฑุฉุ",7,"square.png",3,"trial_lists/trial_list_3"
"2nMFB",".ุงูุฑุฌุงุก ุชุณููุฉ ูุฐู ุงูุตูุฑุฉ",103.932,6229,"ุฑุงุณ ุงููุงุฑ",1477,106.414,4,"ูุง ูุฏู ุชุทุงุจู ูุฐุง ุงูุงุณู ูุน ูุฐู ุงูุตูุฑุฉุ",8,"VCS_90.png",3,"trial_lists/trial_list_3"
"2nMFB",".ุงูุฑุฌุงุก ุชุณููุฉ ูุฐู ุงูุตูุฑุฉ",116.253,9816,"ุชุดุจู ุดุฌุฑุฉ ุงููุฑูุณูุณ",2055,119.313,3,"ูุง ูุฏู ุชุทุงุจู ูุฐุง ุงูุงุณู ูุน ูุฐู ุงูุตูุฑุฉุ",9,"VCS_270.png",3,"trial_lists/trial_list_3"
"2nMFB",".ุงูุฑุฌุงุก ุชุณููุฉ ูุฐู ุงูุตูุฑุฉ",124.316,4979,"ููุจ",1283,126.604,4,"ูุง ูุฏู ุชุทุงุจู ูุฐุง ุงูุงุณู ูุน ูุฐู ุงูุตูุฑุฉุ",10,"dog.png",3,"trial_lists/trial_list_3"
"2nMFB",".ุงูุฑุฌุงุก ุชุณููุฉ ูุฐู ุงูุตูุฑุฉ",134.33,7703,"ูุงููุง ุจูุนู ุน ุงูุงุฑุถ",1994,137.328,4,"ูุง ูุฏู ุชุทุงุจู ูุฐุง ุงูุงุณู ูุน ูุฐู ุงูุตูุฑุฉุ",11,"VCS_60.png",3,"trial_lists/trial_list_3"
"2nMFB",".ุงูุฑุฌุงุก ุชุณููุฉ ูุฐู ุงูุตูุฑุฉ",144.121,6771,"ุชุดุจู ุงูุตููุจ",1670,146.795,3,"ูุง ูุฏู ุชุทุงุจู ูุฐุง ุงูุงุณู ูุน ูุฐู ุงูุตูุฑุฉุ",12,"VCS_30.png",3,"trial_lists/trial_list_3"
"2nMFB",".ุงูุฑุฌุงุก ุชุณููุฉ ูุฐู ุงูุตูุฑุฉ",158.208,11390,"ุฑุงุณ ูุงุฑ ุนูุฏู ูุบููุบ",1798,161.011,4,"ูุง ูุฏู ุชุทุงุจู ูุฐุง ุงูุงุณู ูุน ูุฐู ุงูุตูุฑุฉุ",13,"VCS_120.png",3,"trial_lists/trial_list_3"
"2nMFB",".ุงูุฑุฌุงุก ุชุณููุฉ ูุฐู ุงูุตูุฑุฉ",169.134,8100,"ูุฌูู ุจุชููุน ูู ุงูุณูุงุก",1191,171.326,4,"ูุง ูุฏู ุชุทุงุจู ูุฐุง ุงูุงุณู ูุน ูุฐู ุงูุตูุฑุฉุ",14,"VCS_360.png",3,"trial_lists/trial_list_3"
"2nMFB",".ุงูุฑุฌุงุก ุชุณููุฉ ูุฐู ุงูุตูุฑุฉ",179.073,7727,"ุญุชุฉ ุฎุดุจู",1434,181.511,4,"ูุง ูุฏู ุชุทุงุจู ูุฐุง ุงูุงุณู ูุน ูุฐู ุงูุตูุฑุฉุ",15,"VCS_210.png",3,"trial_lists/trial_list_3"
"2Q3Xp",".ุงูุฑุฌุงุก ุชุณููุฉ ูุฐู ุงูุตูุฑุฉ",33.961,14518,"Star",38314,73.304,3,"ูุง ูุฏู ุชุทุงุจู ูุฐุง ุงูุงุณู ูุน ูุฐู ุงูุตูุฑุฉุ",1,"VCS_330.png",3,"trial_lists/trial_list_3"
"2Q3Xp",".ุงูุฑุฌุงุก ุชุณููุฉ ูุฐู ุงูุตูุฑุฉ",87.981,14597,"Blank box",3910,92.923,3,"ูุง ูุฏู ุชุทุงุจู ูุฐุง ุงูุงุณู ูุน ูุฐู ุงูุตูุฑุฉุ",2,"square.png",3,"trial_lists/trial_list_3"
"2Q3Xp",".ุงูุฑุฌุงุก ุชุณููุฉ ูุฐู ุงูุตูุฑุฉ",102.905,9939,"Hexagone",3306,107.238,2,"ูุง ูุฏู ุชุทุงุจู ูุฐุง ุงูุงุณู ูุน ูุฐู ุงูุตูุฑุฉุ",3,"VCS_210.png",3,"trial_lists/trial_list_3"
"2Q3Xp",".ุงูุฑุฌุงุก ุชุณููุฉ ูุฐู ุงูุตูุฑุฉ",124.662,17378,"Star-square",1168,126.847,1,"ูุง ูุฏู ุชุทุงุจู ูุฐุง ุงูุงุณู ูุน ูุฐู ุงูุตูุฑุฉุ",4,"VCS_270.png",3,"trial_lists/trial_list_3"
"2Q3Xp",".ุงูุฑุฌุงุก ุชุณููุฉ ูุฐู ุงูุตูุฑุฉ",139.781,12871,"Idk",1201,142.011,1,"ูุง ูุฏู ุชุทุงุจู ูุฐุง ุงูุงุณู ูุน ูุฐู ุงูุตูุฑุฉุ",5,"VCS_60.png",3,"trial_lists/trial_list_3"
"2Q3Xp",".ุงูุฑุฌุงุก ุชุณููุฉ ูุฐู ุงูุตูุฑุฉ",147.813,5739,"Star",1350,150.177,1,"ูุง ูุฏู ุชุทุงุจู ูุฐุง ุงูุงุณู ูุน ูุฐู ุงูุตูุฑุฉุ",6,"VCS_360.png",3,"trial_lists/trial_list_3"
"2Q3Xp",".ุงูุฑุฌุงุก ุชุณููุฉ ูุฐู ุงูุตูุฑุฉ",154.723,4492,"Idk",1973,157.721,1,"ูุง ูุฏู ุชุทุงุจู ูุฐุง ุงูุงุณู ูุน ูุฐู ุงูุตูุฑุฉุ",7,"VCS_120.png",3,"trial_lists/trial_list_3"
"2qEwd",".ุงูุฑุฌุงุก ุชุณููุฉ ูุฐู ุงูุตูุฑุฉ",21.78,8459,"ูุฌูุฉ",23693,46.553,3,"ูุง ูุฏู ุชุทุงุจู ูุฐุง ุงูุงุณู ูุน ูุฐู ุงูุตูุฑุฉุ",1,"VCS_250.png",1,"trial_lists/trial_list_1"
"2qEwd",".ุงูุฑุฌุงุก ุชุณููุฉ ูุฐู ุงูุตูุฑุฉ",62.758,16146,"ูุฌูุฉ",4752,68.535,2,"ูุง ูุฏู ุชุทุงุจู ูุฐุง ุงูุงุณู ูุน ูุฐู ุงูุตูุฑุฉุ",2,"VCS_280.png",1,"trial_lists/trial_list_1"
"2qEwd",".ุงูุฑุฌุงุก ุชุณููุฉ ูุฐู ุงูุตูุฑุฉ",83.958,15365,"ูุฌูุฉ",5770,90.771,2,"ูุง ูุฏู ุชุทุงุจู ูุฐุง ุงูุงุณู ูุน ูุฐู ุงูุตูุฑุฉุ",3,"VCS_340.png",1,"trial_lists/trial_list_1"
"2qEwd",".ุงูุฑุฌุงุก ุชุณููุฉ ูุฐู ุงูุตูุฑุฉ",111.272,20465,"ุซูุฌ",2967,115.263,2,"ูุง ูุฏู ุชุทุงุจู ูุฐุง ุงูุงุณู ูุน ูุฐู ุงูุตูุฑุฉุ",4,"VCS_10.png",1,"trial_lists/trial_list_1"
"2qEwd",".ุงูุฑุฌุงุก ุชุณููุฉ ูุฐู ุงูุตูุฑุฉ",124.403,9087,"ุฃูุงุก",1786,127.207,3,"ูุง ูุฏู ุชุทุงุจู ูุฐุง ุงูุงุณู ูุน ูุฐู ุงูุตูุฑุฉุ",5,"VCS_160.png",1,"trial_lists/trial_list_1"
"2qEwd",".ุงูุฑุฌุงุก ุชุณููุฉ ูุฐู ุงูุตูุฑุฉ",142.008,14776,"ูุณุชุงู",2338,145.367,2,"ูุง ูุฏู ุชุทุงุจู ูุฐุง ุงูุงุณู ูุน ูุฐู ุงูุตูุฑุฉุ",6,"VCS_130.png",1,"trial_lists/trial_list_1"
"2qEwd",".ุงูุฑุฌุงุก ุชุณููุฉ ูุฐู ุงูุตูุฑุฉ",166.244,20848,"ูุงูุจ ุญููุฉ",2165,169.432,2,"ูุง ูุฏู ุชุทุงุจู ูุฐุง ุงูุงุณู ูุน ูุฐู ุงูุตูุฑุฉุ",7,"VCS_190.png",1,"trial_lists/trial_list_1"
"2qEwd",".ุงูุฑุฌุงุก ุชุณููุฉ ูุฐู ุงูุตูุฑุฉ",180.071,10607,"ุงุดุงุฑุฉ ุถุฑุจ",6437,187.523,1,"ูุง ูุฏู ุชุทุงุจู ูุฐุง ุงูุงุณู ูุน ูุฐู ุงูุตูุฑุฉุ",8,"VCS_40.png",1,"trial_lists/trial_list_1"
"2qEwd",".ุงูุฑุฌุงุก ุชุณููุฉ ูุฐู ุงูุตูุฑุฉ",197.837,10276,"ููุจ",4771,203.631,4,"ูุง ูุฏู ุชุทุงุจู ูุฐุง ุงูุงุณู ูุน ูุฐู ุงูุตูุฑุฉุ",9,"dog.png",1,"trial_lists/trial_list_1"
"2qEwd",".ุงูุฑุฌุงุก ุชุณููุฉ ูุฐู ุงูุตูุฑุฉ",224.136,20476,"ุดุจุญ",1089,226.241,1,"ูุง ูุฏู ุชุทุงุจู ูุฐุง ุงูุงุณู ูุน ูุฐู ุงูุตูุฑุฉุ",10,"VCS_310.png",1,"trial_lists/trial_list_1"
"2qEwd",".ุงูุฑุฌุงุก ุชุณููุฉ ูุฐู ุงูุตูุฑุฉ",257.959,31685,"ูุนุงุก",1525,260.499,1,"ูุง ูุฏู ุชุทุงุจู ูุฐุง ุงูุงุณู ูุน ูุฐู ุงูุตูุฑุฉุ",11,"VCS_70.png",1,"trial_lists/trial_list_1"
"2qEwd",".ุงูุฑุฌุงุก ุชุณููุฉ ูุฐู ุงูุตูุฑุฉ",268.577,8052,"ูุซูุซ",1427,271.023,4,"ูุง ูุฏู ุชุทุงุจู ูุฐุง ุงูุงุณู ูุน ูุฐู ุงูุตูุฑุฉุ",12,"triangle.png",1,"trial_lists/trial_list_1"
"2qEwd",".ุงูุฑุฌุงุก ุชุณููุฉ ูุฐู ุงูุตูุฑุฉ",278.107,7056,"ููุฒู",1784,280.906,1,"ูุง ูุฏู ุชุทุงุจู ูุฐุง ุงูุงุณู ูุน ูุฐู ุงูุตูุฑุฉุ",13,"VCS_220.png",1,"trial_lists/trial_list_1"
"2qEwd",".ุงูุฑุฌุงุก ุชุณููุฉ ูุฐู ุงูุตูุฑุฉ",288.546,7608,"ูุณุชุงู",1501,291.061,1,"ูุง ูุฏู ุชุทุงุจู ูุฐุง ุงูุงุณู ูุน ูุฐู ุงูุตูุฑุฉุ",14,"VCS_100.png",1,"trial_lists/trial_list_1"
"2qEwd",".ุงูุฑุฌุงุก ุชุณููุฉ ูุฐู ุงูุตูุฑุฉ",296.904,5816,"ูุฑุจุน",1118,299.041,4,"ูุง ูุฏู ุชุทุงุจู ูุฐุง ุงูุงุณู ูุน ูุฐู ุงูุตูุฑุฉุ",15,"square.png",1,"trial_lists/trial_list_1"
"2wYjM",".ุงูุฑุฌุงุก ุชุณููุฉ ูุฐู ุงูุตูุฑุฉ",19.51,14755,"ุฎููุงุณู",14606,35.126,4,"ูุง ูุฏู ุชุทุงุจู ูุฐุง ุงูุงุณู ูุน ูุฐู ุงูุตูุฑุฉุ",1,"VCS_230.png",2,"trial_lists/trial_list_2"
"2wYjM",".ุงูุฑุฌุงุก ุชุณููุฉ ูุฐู ุงูุตูุฑุฉ",62.324,27172,"ุดูู ููุฏุณู",8086,71.413,3,"ูุง ูุฏู ุชุทุงุจู ูุฐุง ุงูุงุณู ูุน ูุฐู ุงูุตูุฑุฉุ",2,"VCS_290.png",2,"trial_lists/trial_list_2"
"2wYjM",".ุงูุฑุฌุงุก ุชุณููุฉ ูุฐู ุงูุตูุฑุฉ",91.788,20352,"ุดูู ููุฏุณู",4444,97.237,2,"ูุง ูุฏู ุชุทุงุจู ูุฐุง ุงูุงุณู ูุน ูุฐู ุงูุตูุฑุฉุ",3,"VCS_200.png",2,"trial_lists/trial_list_2"
"2wYjM",".ุงูุฑุฌุงุก ุชุณููุฉ ูุฐู ุงูุตูุฑุฉ",113.513,16254,"ุดูู ููุฏุณู",3976,118.494,1,"ูุง ูุฏู ุชุทุงุจู ูุฐุง ุงูุงุณู ูุน ูุฐู ุงูุตูุฑุฉุ",4,"VCS_80.png",2,"trial_lists/trial_list_2"
"2wYjM",".ุงูุฑุฌุงุก ุชุณููุฉ ูุฐู ุงูุตูุฑุฉ",132.843,14326,"ูุฌูู",3141,136.989,2,"ูุง ูุฏู ุชุทุงุจู ูุฐุง ุงูุงุณู ูุน ูุฐู ุงูุตูุฑุฉุ",5,"VCS_320.png",2,"trial_lists/trial_list_2"
"2wYjM",".ุงูุฑุฌุงุก ุชุณููุฉ ูุฐู ุงูุตูุฑุฉ",150.783,13779,"ุดูู ููุฏุณู",995,152.781,1,"ูุง ูุฏู ุชุทุงุจู ูุฐุง ุงูุงุณู ูุน ูุฐู ุงูุตูุฑุฉุ",6,"VCS_50.png",2,"trial_lists/trial_list_2"
"2wYjM",".ุงูุฑุฌุงุก ุชุณููุฉ ูุฐู ุงูุตูุฑุฉ",158.756,5954,"ูุฑุจุน",2255,162.016,4,"ูุง ูุฏู ุชุทุงุจู ูุฐุง ุงูุงุณู ูุน ูุฐู ุงูุตูุฑุฉุ",7,"square.png",2,"trial_lists/trial_list_2"
"2wYjM",".ุงูุฑุฌุงุก ุชุณููุฉ ูุฐู ุงูุตูุฑุฉ",182.987,20951,"ููุจ",1800,185.792,4,"ูุง ูุฏู ุชุทุงุจู ูุฐุง ุงูุงุณู ูุน ูุฐู ุงูุตูุฑุฉุ",8,"dog.png",2,"trial_lists/trial_list_2"
"2wYjM",".ุงูุฑุฌุงุก ุชุณููุฉ ูุฐู ุงูุตูุฑุฉ",193.222,7408,"ูุฌูู ุฑูุจุงุนูู",2114,196.341,3,"ูุง ูุฏู ุชุทุงุจู ูุฐุง ุงูุงุณู ูุน ูุฐู ุงูุตูุฑุฉุ",9,"VCS_20.png",2,"trial_lists/trial_list_2"
"2wYjM",".ุงูุฑุฌุงุก ุชุณููุฉ ูุฐู ุงูุตูุฑุฉ",207.624,11261,"ุดูู ููุฏุณู",3150,211.778,1,"ูุง ูุฏู ุชุทุงุจู ูุฐุง ุงูุงุณู ูุน ูุฐู ุงูุตูุฑุฉุ",10,"VCS_140.png",2,"trial_lists/trial_list_2"
"2wYjM",".ุงูุฑุฌุงุก ุชุณููุฉ ูุฐู ุงูุตูุฑุฉ",216.408,4607,"ูุฌูู",2322,219.734,4,"ูุง ูุฏู ุชุทุงุจู ูุฐุง ุงูุงุณู ูุน ูุฐู ุงูุตูุฑุฉุ",11,"VCS_350.png",2,"trial_lists/trial_list_2"
"2wYjM",".ุงูุฑุฌุงุก ุชุณููุฉ ูุฐู ุงูุตูุฑุฉ",224.68,4924,"ูุฌูู",1468,227.152,3,"ูุง ูุฏู ุชุทุงุจู ูุฐุง ุงูุงุณู ูุน ูุฐู ุงูุตูุฑุฉุ",12,"VCS_260.png",2,"trial_lists/trial_list_2"
"2wYjM",".ุงูุฑุฌุงุก ุชุณููุฉ ูุฐู ุงูุตูุฑุฉ",236.88,9707,"ุดูู ููุฏุณู",1065,238.95,1,"ูุง ูุฏู ุชุทุงุจู ูุฐุง ุงูุงุณู ูุน ูุฐู ุงูุตูุฑุฉุ",13,"VCS_170.png",2,"trial_lists/trial_list_2"
"2wYjM",".ุงูุฑุฌุงุก ุชุณููุฉ ูุฐู ุงูุตูุฑุฉ",249.562,10590,"ุดูู ููุฏุณู",1842,252.408,1,"ูุง ูุฏู ุชุทุงุจู ูุฐุง ุงูุงุณู ูุน ูุฐู ุงูุตูุฑุฉุ",14,"VCS_110.png",2,"trial_lists/trial_list_2"
"2wYjM",".ุงูุฑุฌุงุก ุชุณููุฉ ูุฐู ุงูุตูุฑุฉ",258.61,6179,"ูุซูุซ",1160,260.774,4,"ูุง ูุฏู ุชุทุงุจู ูุฐุง ุงูุงุณู ูุน ูุฐู ุงูุตูุฑุฉุ",15,"triangle.png",2,"trial_lists/trial_list_2"
"2zOTp",".ุงูุฑุฌุงุก ุชุณููุฉ ูุฐู ุงูุตูุฑุฉ",44.436,13641,"ุงุฑูุจ",8138,53.596,2,"ูุง ูุฏู ุชุทุงุจู ูุฐุง ุงูุงุณู ูุน ูุฐู ุงูุตูุฑุฉุ",1,"VCS_120.png",3,"trial_lists/trial_list_3"
"2zOTp",".ุงูุฑุฌุงุก ุชุณููุฉ ูุฐู ุงูุตูุฑุฉ",62.015,8368,"ูุฌูู",4110,67.143,3,"ูุง ูุฏู ุชุทุงุจู ูุฐุง ุงูุงุณู ูุน ูุฐู ุงูุตูุฑุฉุ",2,"VCS_270.png",3,"trial_lists/trial_list_3"
"2zOTp",".ุงูุฑุฌุงุก ุชุณููุฉ ูุฐู ุงูุตูุฑุฉ",89.173,22000,"ูุฌูู",1373,91.572,2,"ูุง ูุฏู ุชุทุงุจู ูุฐุง ุงูุงุณู ูุน ูุฐู ุงูุตูุฑุฉุ",3,"VCS_330.png",3,"trial_lists/trial_list_3"
"32ZBs",".ุงูุฑุฌุงุก ุชุณููุฉ ูุฐู ุงูุตูุฑุฉ",29.184,19314,"ุทุงุฆุฑุฉ",11543,41.77,2,"ูุง ูุฏู ุชุทุงุจู ูุฐุง ุงูุงุณู ูุน ูุฐู ุงูุตูุฑุฉุ",1,"VCS_320.png",2,"trial_lists/trial_list_2"
"32ZBs",".ุงูุฑุฌุงุก ุชุณููุฉ ูุฐู ุงูุตูุฑุฉ",50.267,8441,"ูุซูุซ",3365,54.661,4,"ูุง ูุฏู ุชุทุงุจู ูุฐุง ุงูุงุณู ูุน ูุฐู ุงูุตูุฑุฉุ",2,"triangle.png",2,"trial_lists/trial_list_2"
"32ZBs",".ุงูุฑุฌุงุก ุชุณููุฉ ูุฐู ุงูุตูุฑุฉ",79.245,24546,"ููุฒุฉ",2530,82.806,2,"ูุง ูุฏู ุชุทุงุจู ูุฐุง ุงูุงุณู ูุน ูุฐู ุงูุตูุฑุฉุ",3,"VCS_110.png",2,"trial_lists/trial_list_2"
"32ZBs",".ุงูุฑุฌุงุก ุชุณููุฉ ูุฐู ุงูุตูุฑุฉ",100.466,17613,"ูุฌูุฉ ูุฑุจุนูุฉ",1626,103.112,2,"ูุง ูุฏู ุชุทุงุจู ูุฐุง ุงูุงุณู ูุน ูุฐู ุงูุตูุฑุฉุ",4,"VCS_260.png",2,"trial_lists/trial_list_2"
"32ZBs",".ุงูุฑุฌุงุก ุชุณููุฉ ูุฐู ุงูุตูุฑุฉ",138.879,35739,"ูุฌูุฉูุดุจู ูุฑุจุน",1242,141.143,1,"ูุง ูุฏู ุชุทุงุจู ูุฐุง ุงูุงุณู ูุน ูุฐู ุงูุตูุฑุฉุ",5,"VCS_290.png",2,"trial_lists/trial_list_2"
"32ZBs",".ุงูุฑุฌุงุก ุชุณููุฉ ูุฐู ุงูุตูุฑุฉ",150.539,9350,"ุงูุณ",2851,154.416,2,"ูุง ูุฏู ุชุทุงุจู ูุฐุง ุงูุงุณู ูุน ูุฐู ุงูุตูุฑุฉุ",6,"VCS_20.png",2,"trial_lists/trial_list_2"
"32ZBs",".ุงูุฑุฌุงุก ุชุณููุฉ ูุฐู ุงูุตูุฑุฉ",166.109,11652,"ุฌุฑูุฉ",1520,168.656,1,"ูุง ูุฏู ุชุทุงุจู ูุฐุง ุงูุงุณู ูุน ูุฐู ุงูุตูุฑุฉุ",7,"VCS_170.png",2,"trial_lists/trial_list_2"
"32ZBs",".ุงูุฑุฌุงุก ุชุณููุฉ ูุฐู ุงูุตูุฑุฉ",175.522,6826,"ุงูุณ",1783,178.322,2,"ูุง ูุฏู ุชุทุงุจู ูุฐุง ุงูุงุณู ูุน ูุฐู ุงูุตูุฑุฉุ",8,"VCS_50.png",2,"trial_lists/trial_list_2"
"32ZBs",".ุงูุฑุฌุงุก ุชุณููุฉ ูุฐู ุงูุตูุฑุฉ",204.147,25803,"ุดุจู ูุฑุจุน",1456,206.625,1,"ูุง ูุฏู ุชุทุงุจู ูุฐุง ุงูุงุณู ูุน ูุฐู ุงูุตูุฑุฉุ",9,"VCS_200.png",2,"trial_lists/trial_list_2"
"32ZBs",".ุงูุฑุฌุงุก ุชุณููุฉ ูุฐู ุงูุตูุฑุฉ",217.086,10417,"ุฌุฑุฉ",1421,219.527,1,"ูุง ูุฏู ุชุทุงุจู ูุฐุง ุงูุงุณู ูุน ูุฐู ุงูุตูุฑุฉุ",10,"VCS_140.png",2,"trial_lists/trial_list_2"
"32ZBs",".ุงูุฑุฌุงุก ุชุณููุฉ ูุฐู ุงูุตูุฑุฉ",233.268,13697,"ูุฌูุฉ ูุน ุงุฑุจุน ุฒูุงูุง",1603,235.897,2,"ูุง ูุฏู ุชุทุงุจู ูุฐุง ุงูุงุณู ูุน ูุฐู ุงูุตูุฑุฉุ",11,"VCS_350.png",2,"trial_lists/trial_list_2"
"32ZBs",".ุงูุฑุฌุงุก ุชุณููุฉ ูุฐู ุงูุตูุฑุฉ",252.495,16561,"ุฐุฆุจ ูููุจ",1207,254.728,2,"ูุง ูุฏู ุชุทุงุจู ูุฐุง ุงูุงุณู ูุน ูุฐู ุงูุตูุฑุฉุ",12,"dog.png",2,"trial_lists/trial_list_2"
"32ZBs",".ุงูุฑุฌุงุก ุชุณููุฉ ูุฐู ุงูุตูุฑุฉ",264.988,10226,"ุดุจู ูุฌูุฉ",1077,267.087,3,"ูุง ูุฏู ุชุทุงุจู ูุฐุง ุงูุงุณู ูุน ูุฐู ุงูุตูุฑุฉุ",13,"VCS_230.png",2,"trial_lists/trial_list_2"
"32ZBs",".ุงูุฑุฌุงุก ุชุณููุฉ ูุฐู ุงูุตูุฑุฉ",278.281,11144,"ุดุจู ุงูุณ",2794,282.095,1,"ูุง ูุฏู ุชุทุงุจู ูุฐุง ุงูุงุณู ูุน ูุฐู ุงูุตูุฑุฉุ",14,"VCS_80.png",2,"trial_lists/trial_list_2"
"32ZBs",".ุงูุฑุฌุงุก ุชุณููุฉ ูุฐู ุงูุตูุฑุฉ",291.826,9694,"ูุฑุจุน",1101,293.953,4,"ูุง ูุฏู ุชุทุงุจู ูุฐุง ุงูุงุณู ูุน ูุฐู ุงูุตูุฑุฉุ",15,"square.png",2,"trial_lists/trial_list_2"
"37HVv",".ุงูุฑุฌุงุก ุชุณููุฉ ูุฐู ุงูุตูุฑุฉ",126.019,23496,"ูุฌูุฉ",9500,136.528,2,"ูุง ูุฏู ุชุทุงุจู ูุฐุง ุงูุงุณู ูุน ูุฐู ุงูุตูุฑุฉุ",1,"VCS_10.png",1,"trial_lists/trial_list_1"
"37HVv",".ุงูุฑุฌุงุก ุชุณููุฉ ูุฐู ุงูุตูุฑุฉ",158.566,22024,"ูุงููุฑูุจ",5522,165.093,3,"ูุง ูุฏู ุชุทุงุจู ูุฐุง ุงูุงุณู ูุน ูุฐู ุงูุตูุฑุฉุ",2,"VCS_40.png",1,"trial_lists/trial_list_1"
"37HVv",".ุงูุฑุฌุงุก ุชุณููุฉ ูุฐู ุงูุตูุฑุฉ",222.829,57709,"ูููุฑูุจ",5924,229.758,1,"ูุง ูุฏู ุชุทุงุจู ูุฐุง ุงูุงุณู ูุน ูุฐู ุงูุตูุฑุฉุ",3,"VCS_70.png",1,"trial_lists/trial_list_1"
"37HVv",".ุงูุฑุฌุงุก ุชุณููุฉ ูุฐู ุงูุตูุฑุฉ",283.61,53815,"ูุฌูู",3689,288.339,2,"ูุง ูุฏู ุชุทุงุจู ูุฐุง ุงูุงุณู ูุน ูุฐู ุงูุตูุฑุฉุ",4,"VCS_250.png",1,"trial_lists/trial_list_1"
"37HVv",".ุงูุฑุฌุงุก ุชุณููุฉ ูุฐู ุงูุตูุฑุฉ",325.162,36776,"ุจุงุชุฑูู",1652,327.819,2,"ูุง ูุฏู ุชุทุงุจู ูุฐุง ุงูุงุณู ูุน ูุฐู ุงูุตูุฑุฉุ",5,"VCS_190.png",1,"trial_lists/trial_list_1"
"37HVv",".ุงูุฑุฌุงุก ุชุณููุฉ ูุฐู ุงูุตูุฑุฉ",338.294,10447,"ูุฌูู",2888,342.192,1,"ูุง ูุฏู ุชุทุงุจู ูุฐุง ุงูุงุณู ูุน ูุฐู ุงูุตูุฑุฉุ",6,"VCS_220.png",1,"trial_lists/trial_list_1"
"37HVv",".ุงูุฑุฌุงุก ุชุณููุฉ ูุฐู ุงูุตูุฑุฉ",349.188,6964,"ุงุฑูุจ",2680,352.898,4,"ูุง ูุฏู ุชุทุงุจู ูุฐุง ุงูุงุณู ูุน ูุฐู ุงูุตูุฑุฉุ",7,"VCS_130.png",1,"trial_lists/trial_list_1"
"37HVv",".ุงูุฑุฌุงุก ุชุณููุฉ ูุฐู ุงูุตูุฑุฉ",359.245,6316,"ูุฌูู",2312,362.563,3,"ูุง ูุฏู ุชุทุงุจู ูุฐุง ุงูุงุณู ูุน ูุฐู ุงูุตูุฑุฉุ",8,"VCS_340.png",1,"trial_lists/trial_list_1"
"37HVv",".ุงูุฑุฌุงุก ุชุณููุฉ ูุฐู ุงูุตูุฑุฉ",367.295,4706,"ูุฌูู",4459,372.762,1,"ูุง ูุฏู ุชุทุงุจู ูุฐุง ุงูุงุณู ูุน ูุฐู ุงูุตูุฑุฉุ",9,"VCS_280.png",1,"trial_lists/trial_list_1"
"37HVv",".ุงูุฑุฌุงุก ุชุณููุฉ ูุฐู ุงูุตูุฑุฉ",380.094,7317,"ูุฑุจุน",1549,382.651,4,"ูุง ูุฏู ุชุทุงุจู ูุฐุง ุงูุงุณู ูุน ูุฐู ุงูุตูุฑุฉุ",10,"square.png",1,"trial_lists/trial_list_1"
"37HVv",".ุงูุฑุฌุงุก ุชุณููุฉ ูุฐู ุงูุตูุฑุฉ",388.168,5495,"ูุฌู",4517,393.689,2,"ูุง ูุฏู ุชุทุงุจู ูุฐุง ุงูุงุณู ูุน ูุฐู ุงูุตูุฑุฉุ",11,"VCS_160.png",1,"trial_lists/trial_list_1"
"37HVv",".ุงูุฑุฌุงุก ุชุณููุฉ ูุฐู ุงูุตูุฑุฉ",400.059,6352,"ูุซูุซ",4803,405.865,4,"ูุง ูุฏู ุชุทุงุจู ูุฐุง ุงูุงุณู ูุน ูุฐู ุงูุตูุฑุฉุ",12,"triangle.png",1,"trial_lists/trial_list_1"
"37HVv",".ุงูุฑุฌุงุก ุชุณููุฉ ูุฐู ุงูุตูุฑุฉ",417.662,11781,"ูุฌู",1506,420.17,4,"ูุง ูุฏู ุชุทุงุจู ูุฐุง ุงูุงุณู ูุน ูุฐู ุงูุตูุฑุฉุ",13,"VCS_310.png",1,"trial_lists/trial_list_1"
"37HVv",".ุงูุฑุฌุงุก ุชุณููุฉ ูุฐู ุงูุตูุฑุฉ",428.913,8729,"ุงุฑูุจ",1587,431.505,3,"ูุง ูุฏู ุชุทุงุจู ูุฐุง ุงูุงุณู ูุน ูุฐู ุงูุตูุฑุฉุ",14,"VCS_100.png",1,"trial_lists/trial_list_1"
"37HVv",".ุงูุฑุฌุงุก ุชุณููุฉ ูุฐู ุงูุตูุฑุฉ",440.017,8497,"ููุจ",3930,444.953,4,"ูุง ูุฏู ุชุทุงุจู ูุฐุง ุงูุงุณู ูุน ูุฐู ุงูุตูุฑุฉุ",15,"dog.png",1,"trial_lists/trial_list_1"
"37Zqu",".ุงูุฑุฌุงุก ุชุณููุฉ ูุฐู ุงูุตูุฑุฉ",84.293,20030,"ุนูุงูุฉ X",18354,103.695,2,"ูุง ูุฏู ุชุทุงุจู ูุฐุง ุงูุงุณู ูุน ูุฐู ุงูุตูุฑุฉุ",1,"VCS_70.png",1,"trial_lists/trial_list_1"
"37Zqu",".ุงูุฑุฌุงุก ุชุณููุฉ ูุฐู ุงูุตูุฑุฉ",111.185,7445,"ููุจ",10777,122.992,4,"ูุง ูุฏู ุชุทุงุจู ูุฐุง ุงูุงุณู ูุน ูุฐู ุงูุตูุฑุฉุ",2,"dog.png",1,"trial_lists/trial_list_1"
"37Zqu",".ุงูุฑุฌุงุก ุชุณููุฉ ูุฐู ุงูุตูุฑุฉ",130.812,7773,"ูุฌูุฉ",7833,139.67,3,"ูุง ูุฏู ุชุทุงุจู ูุฐุง ุงูุงุณู ูุน ูุฐู ุงูุตูุฑุฉุ",3,"VCS_310.png",1,"trial_lists/trial_list_1"
"37Zqu",".ุงูุฑุฌุงุก ุชุณููุฉ ูุฐู ุงูุตูุฑุฉ",162.367,22675,"ุถุฑุณ",3295,166.683,1,"ูุง ูุฏู ุชุทุงุจู ูุฐุง ุงูุงุณู ูุน ูุฐู ุงูุตูุฑุฉุ",4,"VCS_160.png",1,"trial_lists/trial_list_1"
"37Zqu",".ุงูุฑุฌุงุก ุชุณููุฉ ูุฐู ุงูุตูุฑุฉ",194.693,27967,"ูุณุงู",1929,197.642,1,"ูุง ูุฏู ุชุทุงุจู ูุฐุง ุงูุงุณู ูุน ูุฐู ุงูุตูุฑุฉุ",5,"VCS_190.png",1,"trial_lists/trial_list_1"
"37Zqu",".ุงูุฑุฌุงุก ุชุณููุฉ ูุฐู ุงูุตูุฑุฉ",208.429,10759,"ุนูุงูุฉ X",4347,213.799,2,"ูุง ูุฏู ุชุทุงุจู ูุฐุง ุงูุงุณู ูุน ูุฐู ุงูุตูุฑุฉุ",6,"VCS_40.png",1,"trial_lists/trial_list_1"
"37Zqu",".ุงูุฑุฌุงุก ุชุณููุฉ ูุฐู ุงูุตูุฑุฉ",220.953,7126,"ูุซูุซ",1322,223.302,4,"ูุง ูุฏู ุชุทุงุจู ูุฐุง ุงูุงุณู ูุน ูุฐู ุงูุตูุฑุฉุ",7,"triangle.png",1,"trial_lists/trial_list_1"
"37Zqu",".ุงูุฑุฌุงุก ุชุณููุฉ ูุฐู ุงูุตูุฑุฉ",231.599,8275,"ุดูู ุฎูุงุณู",1969,234.599,4,"ูุง ูุฏู ุชุทุงุจู ูุฐุง ุงูุงุณู ูุน ูุฐู ุงูุตูุฑุฉุ",8,"VCS_220.png",1,"trial_lists/trial_list_1"
"37Zqu",".ุงูุฑุฌุงุก ุชุณููุฉ ูุฐู ุงูุตูุฑุฉ",239.842,5208,"ูุฌูุฉ",6564,247.424,1,"ูุง ูุฏู ุชุทุงุจู ูุฐุง ุงูุงุณู ูุน ูุฐู ุงูุตูุฑุฉุ",9,"VCS_340.png",1,"trial_lists/trial_list_1"
"37Zqu",".ุงูุฑุฌุงุก ุชุณููุฉ ูุฐู ุงูุตูุฑุฉ",267.491,20026,"ุทุญูุจ",1345,269.858,1,"ูุง ูุฏู ุชุทุงุจู ูุฐุง ุงูุงุณู ูุน ูุฐู ุงูุตูุฑุฉุ",10,"VCS_130.png",1,"trial_lists/trial_list_1"
"37Zqu",".ุงูุฑุฌุงุก ุชุณููุฉ ูุฐู ุงูุตูุฑุฉ",274.873,4979,"ูุฌูุฉ",1261,277.158,1,"ูุง ูุฏู ุชุทุงุจู ูุฐุง ุงูุงุณู ูุน ูุฐู ุงูุตูุฑุฉุ",11,"VCS_250.png",1,"trial_lists/trial_list_1"
"37Zqu",".ุงูุฑุฌุงุก ุชุณููุฉ ูุฐู ุงูุตูุฑุฉ",293.03,15833,"ุนูุงูุฉ X",3204,297.264,2,"ูุง ูุฏู ุชุทุงุจู ูุฐุง ุงูุงุณู ูุน ูุฐู ุงูุตูุฑุฉุ",12,"VCS_10.png",1,"trial_lists/trial_list_1"
"37Zqu",".ุงูุฑุฌุงุก ุชุณููุฉ ูุฐู ุงูุตูุฑุฉ",303.126,5823,"ูุฌูุฉ",1775,305.924,1,"ูุง ูุฏู ุชุทุงุจู ูุฐุง ุงูุงุณู ูุน ูุฐู ุงูุตูุฑุฉุ",13,"VCS_280.png",1,"trial_lists/trial_list_1"
"37Zqu",".ุงูุฑุฌุงุก ุชุณููุฉ ูุฐู ุงูุตูุฑุฉ",312.759,6813,"ูุฑุจุน",1974,315.766,4,"ูุง ูุฏู ุชุทุงุจู ูุฐุง ุงูุงุณู ูุน ูุฐู ุงูุตูุฑุฉุ",14,"square.png",1,"trial_lists/trial_list_1"
"37Zqu",".ุงูุฑุฌุงุก ุชุณููุฉ ูุฐู ุงูุตูุฑุฉ",323.069,7266,"ุฃุฑูุจ",1370,325.46,1,"ูุง ูุฏู ุชุทุงุจู ูุฐุง ุงูุงุณู ูุน ูุฐู ุงูุตูุฑุฉุ",15,"VCS_100.png",1,"trial_lists/trial_list_1"
"38HPn",".ุงูุฑุฌุงุก ุชุณููุฉ ูุฐู ุงูุตูุฑุฉ",32.474,13352,"ูุฌูู",27494,60.998,4,"ูุง ูุฏู ุชุทุงุจู ูุฐุง ุงูุงุณู ูุน ูุฐู ุงูุตูุฑุฉุ",1,"VCS_310.png",1,"trial_lists/trial_list_1"
"38HPn",".ุงูุฑุฌุงุก ุชุณููุฉ ูุฐู ุงูุตูุฑุฉ",79.227,18198,"ูุงุฒุฉ",16265,96.514,3,"ูุง ูุฏู ุชุทุงุจู ูุฐุง ุงูุงุณู ูุน ูุฐู ุงูุตูุฑุฉุ",2,"VCS_160.png",1,"trial_lists/trial_list_1"
"38HPn",".ุงูุฑุฌุงุก ุชุณููุฉ ูุฐู ุงูุตูุฑุฉ",119.752,23206,"ุณููุฉ",5500,126.276,1,"ูุง ูุฏู ุชุทุงุจู ูุฐุง ุงูุงุณู ูุน ูุฐู ุงูุตูุฑุฉุ",3,"VCS_340.png",1,"trial_lists/trial_list_1"
"38HPn",".ุงูุฑุฌุงุก ุชุณููุฉ ูุฐู ุงูุตูุฑุฉ",133.224,6910,"ูุนุฑูุด",1978,136.224,1,"ูุง ูุฏู ุชุทุงุจู ูุฐุง ุงูุงุณู ูุน ูุฐู ุงูุตูุฑุฉุ",4,"VCS_40.png",1,"trial_lists/trial_list_1"
"38HPn",".ุงูุฑุฌุงุก ุชุณููุฉ ูุฐู ุงูุตูุฑุฉ",146.746,10488,"ุงููู ู ุฎูุงุต",3998,151.767,1,"ูุง ูุฏู ุชุทุงุจู ูุฐุง ุงูุงุณู ูุน ูุฐู ุงูุตูุฑุฉุ",5,"VCS_250.png",1,"trial_lists/trial_list_1"
"38HPn",".ุงูุฑุฌุงุก ุชุณููุฉ ูุฐู ุงูุตูุฑุฉ",163.102,11295,"ูุงููู ู ุงูุง ููููู",2066,166.19,1,"ูุง ูุฏู ุชุทุงุจู ูุฐุง ุงูุงุณู ูุน ูุฐู ุงูุตูุฑุฉุ",6,"VCS_130.png",1,"trial_lists/trial_list_1"
"38HPn",".ุงูุฑุฌุงุก ุชุณููุฉ ูุฐู ุงูุตูุฑุฉ",196.533,30304,"ูุฑุจุน",2373,199.926,4,"ูุง ูุฏู ุชุทุงุจู ูุฐุง ุงูุงุณู ูุน ูุฐู ุงูุตูุฑุฉุ",7,"square.png",1,"trial_lists/trial_list_1"
"38HPn",".ุงูุฑุฌุงุก ุชุณููุฉ ูุฐู ุงูุตูุฑุฉ",219.062,19103,"ุฐุฆุจ",2381,222.466,4,"ูุง ูุฏู ุชุทุงุจู ูุฐุง ุงูุงุณู ูุน ูุฐู ุงูุตูุฑุฉุ",8,"dog.png",1,"trial_lists/trial_list_1"
"38HPn",".ุงูุฑุฌุงุก ุชุณููุฉ ูุฐู ุงูุตูุฑุฉ",227.102,4611,"ูุนุฑูุด",2198,230.322,1,"ูุง ูุฏู ุชุทุงุจู ูุฐุง ุงูุงุณู ูุน ูุฐู ุงูุตูุฑุฉุ",9,"VCS_100.png",1,"trial_lists/trial_list_1"
"38HPn",".ุงูุฑุฌุงุก ุชุณููุฉ ูุฐู ุงูุตูุฑุฉ",240.314,9949,"ุงุณุชุบูุฑ ุงููู ูุนุฑูุด",1973,243.313,1,"ูุง ูุฏู ุชุทุงุจู ูุฐุง ุงูุงุณู ูุน ูุฐู ุงูุตูุฑุฉุ",10,"VCS_280.png",1,"trial_lists/trial_list_1"
"38HPn",".ุงูุฑุฌุงุก ุชุณููุฉ ูุฐู ุงูุตูุฑุฉ",247.607,4269,"ูุนุฑูุด",1638,250.265,1,"ูุง ูุฏู ุชุทุงุจู ูุฐุง ุงูุงุณู ูุน ูุฐู ุงูุตูุฑุฉุ",11,"VCS_70.png",1,"trial_lists/trial_list_1"
"38HPn",".ุงูุฑุฌุงุก ุชุณููุฉ ูุฐู ุงูุตูุฑุฉ",261.866,11569,"ููุง ูููุด ุบูุฑ ูุฌูู",2996,265.881,1,"ูุง ูุฏู ุชุทุงุจู ูุฐุง ุงูุงุณู ูุน ูุฐู ุงูุตูุฑุฉุ",12,"VCS_10.png",1,"trial_lists/trial_list_1"
"38HPn",".ุงูุฑุฌุงุก ุชุณููุฉ ูุฐู ุงูุตูุฑุฉ",273.207,7297,"ูุซูุซ",3515,277.743,4,"ูุง ูุฏู ุชุทุงุจู ูุฐุง ุงูุงุณู ูุน ูุฐู ุงูุตูุฑุฉุ",13,"triangle.png",1,"trial_lists/trial_list_1"
"38HPn",".ุงูุฑุฌุงุก ุชุณููุฉ ูุฐู ุงูุตูุฑุฉ",284.427,6655,"ูุนุฑูุด ุจูุง",1726,287.175,1,"ูุง ูุฏู ุชุทุงุจู ูุฐุง ุงูุงุณู ูุน ูุฐู ุงูุตูุฑุฉุ",14,"VCS_220.png",1,"trial_lists/trial_list_1"
"38HPn",".ุงูุฑุฌุงุก ุชุณููุฉ ูุฐู ุงูุตูุฑุฉ",301.665,14453,"ููุง ูุงุฒุฉ ุจุฑุฏู",1755,304.44,1,"ูุง ูุฏู ุชุทุงุจู ูุฐุง ุงูุงุณู ูุน ูุฐู ุงูุตูุฑุฉุ",15,"VCS_190.png",1,"trial_lists/trial_list_1"
"3aLJ1",".ุงูุฑุฌุงุก ุชุณููุฉ ูุฐู ุงูุตูุฑุฉ",50.396,31456,"ูุฌูุฉ ุฑุจุงุนูุฉ ุงูุฑุคูุณ",12060,63.467,4,"ูุง ูุฏู ุชุทุงุจู ูุฐุง ุงูุงุณู ูุน ูุฐู ุงูุตูุฑุฉุ",1,"VCS_360.png",3,"trial_lists/trial_list_3"
"3aLJ1",".ุงูุฑุฌุงุก ุชุณููุฉ ูุฐู ุงูุตูุฑุฉ",107.622,44133,"ูุฌูุฉ ุฑุจุงุนูุฉ ุบูุฑ ูุฏุจุจุฉ ุงูุฑุคูุณ",1754,110.382,4,"ูุง ูุฏู ุชุทุงุจู ูุฐุง ุงูุงุณู ูุน ูุฐู ุงูุตูุฑุฉุ",2,"VCS_60.png",3,"trial_lists/trial_list_3"
"3cAFo",".ุงูุฑุฌุงุก ุชุณููุฉ ูุฐู ุงูุตูุฑุฉ",217.453,46037,"ุงูุงุก",18656,237.14,2,"ูุง ูุฏู ุชุทุงุจู ูุฐุง ุงูุงุณู ูุน ูุฐู ุงูุตูุฑุฉุ",1,"VCS_120.png",3,"trial_lists/trial_list_3"
"3cAFo",".ุงูุฑุฌุงุก ุชุณููุฉ ูุฐู ุงูุตูุฑุฉ",300.646,63455,"ุจูุนุฉ",7543,309.208,2,"ูุง ูุฏู ุชุทุงุจู ูุฐุง ุงูุงุณู ูุน ูุฐู ุงูุตูุฑุฉุ",2,"VCS_60.png",3,"trial_lists/trial_list_3"
