"subjCode","naming_question","naming_expTimer","naming_rt","nameing_response","goodness_of_fit_rt","goodness_of_fit_expTimer","goodness_of_fit","confidence_question","trial_number","image","trial_list_num","batchFile"
"87D4L","请为此图片命名",46.775,25167,"胸牌",36725,84.519,3,"这个名字有多适合这个图片？?",1,"VCS_190.png",1,"trial_lists/trial_list_1"
"87D4L","请为此图片命名",98.085,13554,"规矩",5254,104.36,4,"这个名字有多适合这个图片？?",2,"square.png",1,"trial_lists/trial_list_1"
"87D4L","请为此图片命名",139.098,34729,"水杯",4271,144.386,2,"这个名字有多适合这个图片？?",3,"VCS_160.png",1,"trial_lists/trial_list_1"
"87D4L","请为此图片命名",161.743,17345,"不规则菱形",2283,165.041,4,"这个名字有多适合这个图片？?",4,"VCS_340.png",1,"trial_lists/trial_list_1"
"87D4L","请为此图片命名",179.361,14312,"坐垫",1450,181.82,4,"这个名字有多适合这个图片？?",5,"VCS_100.png",1,"trial_lists/trial_list_1"
"87D4L","请为此图片命名",221.121,20468,"背对而坐",1088,223.222,3,"这个名字有多适合这个图片？?",7,"VCS_130.png",1,"trial_lists/trial_list_1"
"87D4L","请为此图片命名",198.091,16262,"五角型",1538,200.644,4,"这个名字有多适合这个图片？?",6,"VCS_220.png",1,"trial_lists/trial_list_1"
"87D4L","请为此图片命名",237.956,14723,"不规则五星",1489,240.464,3,"这个名字有多适合这个图片？?",8,"VCS_250.png",1,"trial_lists/trial_list_1"
"87D4L","请为此图片命名",249.791,9318,"三角形",2352,253.153,4,"这个名字有多适合这个图片？?",9,"triangle.png",1,"trial_lists/trial_list_1"
"87D4L","请为此图片命名",268.678,15516,"狗",2203,271.9,4,"这个名字有多适合这个图片？?",10,"dog.png",1,"trial_lists/trial_list_1"
"87D4L","请为此图片命名",283.118,11204,"雪花",1236,285.37,4,"这个名字有多适合这个图片？?",11,"VCS_40.png",1,"trial_lists/trial_list_1"
"87D4L","请为此图片命名",293.784,8403,"不规则雪花",1351,296.148,3,"这个名字有多适合这个图片？?",12,"VCS_310.png",1,"trial_lists/trial_list_1"
"87D4L","请为此图片命名",313.44,17284,"水形",1490,315.948,3,"这个名字有多适合这个图片？?",13,"VCS_70.png",1,"trial_lists/trial_list_1"
"87D4L","请为此图片命名",330.95,14977,"飞镖",1471,333.435,3,"这个名字有多适合这个图片？?",14,"VCS_10.png",1,"trial_lists/trial_list_1"
"87D4L","请为此图片命名",347.773,14315,"标识牌",2841,351.623,3,"这个名字有多适合这个图片？?",15,"VCS_280.png",1,"trial_lists/trial_list_1"
"97pEA","请为此图片命名",84.697,19318,"杨桃",8568,94.291,4,"这个名字有多适合这个图片？",1,"VCS_290.png",2,"trial_lists/trial_list_2"
"97pEA","请为此图片命名",129.811,35494,"飞镖",1869,132.699,4,"这个名字有多适合这个图片？",2,"VCS_20.png",2,"trial_lists/trial_list_2"
"97pEA","请为此图片命名",145.889,13167,"小熊饼干",1060,147.972,4,"这个名字有多适合这个图片？",3,"VCS_50.png",2,"trial_lists/trial_list_2"
"97pEA","请为此图片命名",157.688,9694,"椰子",1160,159.87,4,"这个名字有多适合这个图片？",4,"VCS_200.png",2,"trial_lists/trial_list_2"
"97pEA","请为此图片命名",157.688,9694,"椰子",1160,159.87,4,"这个名字有多适合这个图片？",4,"VCS_200.png",2,"trial_lists/trial_list_2"
"97pEA","请为此图片命名",521.488,361597,"弹弓",1855,524.356,2,"这个名字有多适合这个图片？",5,"VCS_80.png",2,"trial_lists/trial_list_2"
"9it5q","请为此图片命名",70.3,16039,"五边形",17773,89.087,4,"这个名字有多适合这个图片？",1,"VCS_230.png",2,"trial_lists/trial_list_2"
"9it5q","请为此图片命名",128.507,39409,"X型",1660,131.175,4,"这个名字有多适合这个图片？",2,"VCS_80.png",2,"trial_lists/trial_list_2"
"9it5q","请为此图片命名",171.781,40598,"三角柱",1001,173.793,4,"这个名字有多适合这个图片？",3,"VCS_290.png",2,"trial_lists/trial_list_2"
"9it5q","请为此图片命名",223.627,49822,"背心",951,225.587,4,"这个名字有多适合这个图片？",4,"VCS_170.png",2,"trial_lists/trial_list_2"
"9it5q","请为此图片命名",236.717,11118,"四角星",1067,238.795,4,"这个名字有多适合这个图片？",5,"VCS_320.png",2,"trial_lists/trial_list_2"
"9it5q","请为此图片命名",254.314,15507,"海星",720,256.045,4,"这个名字有多适合这个图片？",6,"VCS_20.png",2,"trial_lists/trial_list_2"
"9it5q","请为此图片命名",345.273,89218,"四爪章鱼",779,347.063,4,"这个名字有多适合这个图片？",7,"VCS_50.png",2,"trial_lists/trial_list_2"
"9it5q","请为此图片命名",354.569,7497,"三角形",696,356.275,4,"这个名字有多适合这个图片？",8,"triangle.png",2,"trial_lists/trial_list_2"
"9it5q","请为此图片命名",364.546,8260,"狗",1439,366.998,4,"这个名字有多适合这个图片？",9,"dog.png",2,"trial_lists/trial_list_2"
"9it5q","请为此图片命名",384.581,17562,"三星柱",913,386.503,4,"这个名字有多适合这个图片？",10,"VCS_260.png",2,"trial_lists/trial_list_2"
"9it5q","请为此图片命名",410.593,24076,"徽章",1131,412.736,4,"这个名字有多适合这个图片？",11,"VCS_200.png",2,"trial_lists/trial_list_2"
"9it5q","请为此图片命名",423.855,11107,"正方形",2202,427.067,4,"这个名字有多适合这个图片？",12,"square.png",2,"trial_lists/trial_list_2"
"9it5q","请为此图片命名",441.807,14732,"北约星",953,443.769,4,"这个名字有多适合这个图片？",13,"VCS_350.png",2,"trial_lists/trial_list_2"
"9it5q","请为此图片命名",511.27,67491,"大背心",1072,513.352,4,"这个名字有多适合这个图片？",14,"VCS_110.png",2,"trial_lists/trial_list_2"
"9it5q","请为此图片命名",538.497,25139,"花瓶",1061,540.569,4,"这个名字有多适合这个图片？",15,"VCS_140.png",2,"trial_lists/trial_list_2"
"9YSgI","请为此图片命名",80.634,53126,"无头葫芦",5081,86.724,2,"这个名字有多适合这个图片？?",1,"VCS_160.png",1,"trial_lists/trial_list_1"
"9YSgI","请为此图片命名",116.477,29745,"缺半角四角形",2460,119.943,2,"这个名字有多适合这个图片？?",2,"VCS_310.png",1,"trial_lists/trial_list_1"
"9YSgI","请为此图片命名",142.96,22991,"四角拼图块",2328,146.294,3,"这个名字有多适合这个图片？?",3,"VCS_70.png",1,"trial_lists/trial_list_1"
"9YSgI","请为此图片命名",157.639,11318,"正方形",1985,160.63,3,"这个名字有多适合这个图片？?",4,"square.png",1,"trial_lists/trial_list_1"
"9YSgI","请为此图片命名",175.008,14351,"三角房顶",1699,177.712,2,"这个名字有多适合这个图片？?",5,"VCS_280.png",1,"trial_lists/trial_list_1"
"9YSgI","请为此图片命名",182.477,4737,"狗",1728,185.212,4,"这个名字有多适合这个图片？?",6,"dog.png",1,"trial_lists/trial_list_1"
"9YSgI","请为此图片命名",193.205,7966,"四角拼图块",2252,196.463,4,"这个名字有多适合这个图片？?",7,"VCS_40.png",1,"trial_lists/trial_list_1"
"9YSgI","请为此图片命名",200.798,4308,"围裙",1312,203.115,3,"这个名字有多适合这个图片？?",8,"VCS_100.png",1,"trial_lists/trial_list_1"
"9YSgI","请为此图片命名",208.908,5765,"三角形",2216,212.131,3,"这个名字有多适合这个图片？?",9,"triangle.png",1,"trial_lists/trial_list_1"
"9YSgI","请为此图片命名",218.341,6181,"四角形",1335,220.682,4,"这个名字有多适合这个图片？?",10,"VCS_340.png",1,"trial_lists/trial_list_1"
"9YSgI","请为此图片命名",227.71,7001,"四角形",1286,230.001,3,"这个名字有多适合这个图片？?",11,"VCS_10.png",1,"trial_lists/trial_list_1"
"9YSgI","请为此图片命名",258.135,28108,"破布",1610,260.752,1,"这个名字有多适合这个图片？?",12,"VCS_190.png",1,"trial_lists/trial_list_1"
"9YSgI","请为此图片命名",268.094,7314,"三角房顶",1237,270.337,2,"这个名字有多适合这个图片？?",13,"VCS_250.png",1,"trial_lists/trial_list_1"
"9YSgI","请为此图片命名",276.375,6013,"房顶",1572,278.951,1,"这个名字有多适合这个图片？?",14,"VCS_220.png",1,"trial_lists/trial_list_1"
"9YSgI","请为此图片命名",282.941,3963,"围裙",1422,285.368,2,"这个名字有多适合这个图片？?",15,"VCS_130.png",1,"trial_lists/trial_list_1"
"A7CGZ","请为此图片命名",100.582,11523,"山",3899,105.541,4,"这个名字有多适合这个图片？",1,"VCS_210.png",3,"trial_lists/trial_list_3"
"AjD7f","请为此图片命名",54.676,22327,"五边型",2778,58.496,4,"这个名字有多适合这个图片？?",1,"VCS_220.png",1,"trial_lists/trial_list_1"
"AjD7f","请为此图片命名",73.719,15197,"三角形",3281,78.019,4,"这个名字有多适合这个图片？?",2,"triangle.png",1,"trial_lists/trial_list_1"
"AjD7f","请为此图片命名",99.249,21213,"身体",4791,105.057,2,"这个名字有多适合这个图片？?",3,"VCS_190.png",1,"trial_lists/trial_list_1"
"AjD7f","请为此图片命名",150.262,45191,"飞机",1193,152.471,3,"这个名字有多适合这个图片？?",4,"VCS_40.png",1,"trial_lists/trial_list_1"
"AjD7f","请为此图片命名",163.927,11434,"衣服",761,165.702,3,"这个名字有多适合这个图片？?",5,"VCS_100.png",1,"trial_lists/trial_list_1"
"AjD7f","请为此图片命名",176.326,10609,"正方形",1139,178.485,4,"这个名字有多适合这个图片？?",6,"square.png",1,"trial_lists/trial_list_1"
"AjD7f","请为此图片命名",234.166,55666,"半星星",1346,236.529,2,"这个名字有多适合这个图片？?",7,"VCS_280.png",1,"trial_lists/trial_list_1"
"AjD7f","请为此图片命名",275.771,39219,"唐僧帽",1446,278.233,2,"这个名字有多适合这个图片？?",8,"VCS_310.png",1,"trial_lists/trial_list_1"
"AjD7f","请为此图片命名",285.875,7626,"五边形",1662,288.553,4,"这个名字有多适合这个图片？?",9,"VCS_250.png",1,"trial_lists/trial_list_1"
"AjD7f","请为此图片命名",299.083,10511,"飞机",1073,301.173,4,"这个名字有多适合这个图片？?",10,"VCS_10.png",1,"trial_lists/trial_list_1"
"AjD7f","请为此图片命名",313.911,12723,"狗",1072,316.004,4,"这个名字有多适合这个图片？?",11,"dog.png",1,"trial_lists/trial_list_1"
"AjD7f","请为此图片命名",331.978,15960,"身体",941,333.937,4,"这个名字有多适合这个图片？?",12,"VCS_160.png",1,"trial_lists/trial_list_1"
"AjD7f","请为此图片命名",348.149,14198,"身体",1150,350.315,3,"这个名字有多适合这个图片？?",13,"VCS_130.png",1,"trial_lists/trial_list_1"
"AjD7f","请为此图片命名",372.004,21674,"骨头",1175,374.193,2,"这个名字有多适合这个图片？?",14,"VCS_70.png",1,"trial_lists/trial_list_1"
"AjD7f","请为此图片命名",387.577,13364,"镖",1550,390.142,3,"这个名字有多适合这个图片？?",15,"VCS_340.png",1,"trial_lists/trial_list_1"
"BKtfm","请为此图片命名",29.615,13908,"狗",11275,41.9,3,"这个名字有多适合这个图片？",1,"dog.png",3,"trial_lists/trial_list_3"
"c4DMT","请为此图片命名",58.474,28950,"小墩",11108,70.614,2,"这个名字有多适合这个图片？",1,"VCS_170.png",2,"trial_lists/trial_list_2"
"c4DMT","请为此图片命名",82.645,11998,"四角星",1449,85.128,3,"这个名字有多适合这个图片？",2,"VCS_20.png",2,"trial_lists/trial_list_2"
"c4DMT","请为此图片命名",99.449,14268,"萌狼",2139,102.624,3,"这个名字有多适合这个图片？",3,"dog.png",2,"trial_lists/trial_list_2"
"c4DMT","请为此图片命名",135.062,32384,"猫猫",1869,137.966,2,"这个名字有多适合这个图片？",4,"VCS_110.png",2,"trial_lists/trial_list_2"
"c4DMT","请为此图片命名",153.017,14997,"错落五角",940,155.003,3,"这个名字有多适合这个图片？",5,"VCS_230.png",2,"trial_lists/trial_list_2"
"c4DMT","请为此图片命名",170.302,15240,"平底五角",1966,173.305,3,"这个名字有多适合这个图片？",6,"VCS_260.png",2,"trial_lists/trial_list_2"
"c4DMT","请为此图片命名",193.225,19867,"变形枫叶",2144,196.397,3,"这个名字有多适合这个图片？",7,"VCS_290.png",2,"trial_lists/trial_list_2"
"c4DMT","请为此图片命名",224.254,27837,"钝四角",2000,227.278,3,"这个名字有多适合这个图片？",8,"VCS_320.png",2,"trial_lists/trial_list_2"
"c4DMT","请为此图片命名",241.713,14371,"小饼干",1663,244.408,3,"这个名字有多适合这个图片？",9,"VCS_50.png",2,"trial_lists/trial_list_2"
"c4DMT","请为此图片命名",270.366,25897,"左视花瓶",1255,272.662,3,"这个名字有多适合这个图片？",10,"VCS_140.png",2,"trial_lists/trial_list_2"
"c4DMT","请为此图片命名",281.727,9007,"小叶子",988,283.758,3,"这个名字有多适合这个图片？",11,"VCS_350.png",2,"trial_lists/trial_list_2"
"c4DMT","请为此图片命名",292.762,8957,"大方",1615,295.412,2,"这个名字有多适合这个图片？",12,"square.png",2,"trial_lists/trial_list_2"
"c4DMT","请为此图片命名",306.656,11181,"胖兔头",1944,309.631,2,"这个名字有多适合这个图片？",13,"VCS_80.png",2,"trial_lists/trial_list_2"
"c4DMT","请为此图片命名",323.677,14000,"圆盾",1457,326.159,2,"这个名字有多适合这个图片？",14,"VCS_200.png",2,"trial_lists/trial_list_2"
"c4DMT","请为此图片命名",341.792,15600,"尖三角",1445,344.267,3,"这个名字有多适合这个图片？",15,"triangle.png",2,"trial_lists/trial_list_2"
"c5sQf","请为此图片命名",36.542,10306,"水盆",16292,53.843,3,"这个名字有多适合这个图片？",1,"VCS_210.png",3,"trial_lists/trial_list_3"
"c5sQf","请为此图片命名",62.692,8832,"雪花",9955,73.652,3,"这个名字有多适合这个图片？",2,"VCS_360.png",3,"trial_lists/trial_list_3"
"c5sQf","请为此图片命名",80.861,7193,"窗户",10504,92.369,3,"这个名字有多适合这个图片？",3,"square.png",3,"trial_lists/trial_list_3"
"c5sQf","请为此图片命名",100.853,8466,"松树",13090,114.948,2,"这个名字有多适合这个图片？",4,"VCS_270.png",3,"trial_lists/trial_list_3"
"c5sQf","请为此图片命名",127.977,13012,"汪汪",6611,135.592,2,"这个名字有多适合这个图片？",5,"dog.png",3,"trial_lists/trial_list_3"
"c5sQf","请为此图片命名",146.761,11151,"饼干",3446,151.216,3,"这个名字有多适合这个图片？",6,"VCS_120.png",3,"trial_lists/trial_list_3"
"c5sQf","请为此图片命名",166.18,14947,"围嘴",2249,169.434,2,"这个名字有多适合这个图片？",7,"VCS_90.png",3,"trial_lists/trial_list_3"
"c5sQf","请为此图片命名",186.312,16861,"冰花",1984,189.3,2,"这个名字有多适合这个图片？",8,"VCS_30.png",3,"trial_lists/trial_list_3"
"c5sQf","请为此图片命名",197.632,8315,"披肩",3766,202.402,2,"这个名字有多适合这个图片？",9,"VCS_180.png",3,"trial_lists/trial_list_3"
"c5sQf","请为此图片命名",210.527,8108,"飞翔",2038,213.57,3,"这个名字有多适合这个图片？",10,"VCS_330.png",3,"trial_lists/trial_list_3"
"c5sQf","请为此图片命名",232.42,18833,"缺角星",5900,239.325,2,"这个名字有多适合这个图片？",11,"VCS_300.png",3,"trial_lists/trial_list_3"
"c5sQf","请为此图片命名",268.353,29010,"线圈",3898,273.256,2,"这个名字有多适合这个图片？",12,"VCS_60.png",3,"trial_lists/trial_list_3"
"c5sQf","请为此图片命名",279.278,6005,"森林",1814,282.097,2,"这个名字有多适合这个图片？",13,"triangle.png",3,"trial_lists/trial_list_3"
"c5sQf","请为此图片命名",299.253,17138,"房子",6536,306.793,2,"这个名字有多适合这个图片？",14,"VCS_240.png",3,"trial_lists/trial_list_3"
"c5sQf","请为此图片命名",314.123,7312,"猫脸",4580,319.71,2,"这个名字有多适合这个图片？",15,"VCS_150.png",3,"trial_lists/trial_list_3"
"CkAzu","请为此图片命名",108.437,96320,"规则",3692,113.157,3,"这个名字有多适合这个图片？",1,"VCS_50.png",2,"trial_lists/trial_list_2"
"CkAzu","请为此图片命名",119.437,6247,"三角",1659,122.103,4,"这个名字有多适合这个图片？",2,"triangle.png",2,"trial_lists/trial_list_2"
"CkAzu","请为此图片命名",129.967,7834,"旋转",1791,132.762,3,"这个名字有多适合这个图片？",3,"VCS_350.png",2,"trial_lists/trial_list_2"
"CkAzu","请为此图片命名",144.681,11892,"胖",2381,148.068,2,"这个名字有多适合这个图片？",4,"VCS_200.png",2,"trial_lists/trial_list_2"
"CkAzu","请为此图片命名",153.931,5837,"旋转",1158,156.094,3,"这个名字有多适合这个图片？",5,"VCS_20.png",2,"trial_lists/trial_list_2"
"CkAzu","请为此图片命名",165.137,9020,"圆润",1158,167.301,3,"这个名字有多适合这个图片？",6,"VCS_170.png",2,"trial_lists/trial_list_2"
"CkAzu","请为此图片命名",177.838,10512,"缩小",1829,180.672,3,"这个名字有多适合这个图片？",7,"VCS_230.png",2,"trial_lists/trial_list_2"
"CkAzu","请为此图片命名",194.087,13390,"空白",1551,196.653,4,"这个名字有多适合这个图片？",8,"square.png",2,"trial_lists/trial_list_2"
"CkAzu","请为此图片命名",206.935,10262,"赤裸",1511,209.456,4,"这个名字有多适合这个图片？",9,"dog.png",2,"trial_lists/trial_list_2"
"CkAzu","请为此图片命名",222.325,12843,"对称",1484,224.814,3,"这个名字有多适合这个图片？",10,"VCS_320.png",2,"trial_lists/trial_list_2"
"CkAzu","请为此图片命名",241.385,16545,"凹陷",1894,244.284,2,"这个名字有多适合这个图片？",11,"VCS_140.png",2,"trial_lists/trial_list_2"
"CkAzu","请为此图片命名",251.536,7225,"凹陷",988,253.528,4,"这个名字有多适合这个图片？",12,"VCS_110.png",2,"trial_lists/trial_list_2"
"CkAzu","请为此图片命名",289.751,36195,"突出",1172,291.929,3,"这个名字有多适合这个图片？",13,"VCS_290.png",2,"trial_lists/trial_list_2"
"CkAzu","请为此图片命名",300.493,8539,"伸展",2270,303.77,3,"这个名字有多适合这个图片？",14,"VCS_80.png",2,"trial_lists/trial_list_2"
"CkAzu","请为此图片命名",317.956,14160,"疼",1414,320.378,4,"这个名字有多适合这个图片？",15,"VCS_260.png",2,"trial_lists/trial_list_2"
"d4iak","请为此图片命名",265.643,41337,"素描中国土狗",8109,274.789,2,"这个名字有多适合这个图片？?",1,"dog.png",1,"trial_lists/trial_list_1"
"d4iak","请为此图片命名",325.444,50603,"不规则但对称的闭环图形",2433,328.901,2,"这个名字有多适合这个图片？?",2,"VCS_190.png",1,"trial_lists/trial_list_1"
"d4iak","请为此图片命名",359.831,30893,"忍者飞镖",8848,369.712,3,"这个名字有多适合这个图片？?",3,"VCS_340.png",1,"trial_lists/trial_list_1"
"d4iak","请为此图片命名",420.018,50277,"像飞镖但不是飞镖",1542,422.592,2,"这个名字有多适合这个图片？?",4,"VCS_310.png",1,"trial_lists/trial_list_1"
"d4iak","请为此图片命名",436.945,14325,"厨师帽吗",1661,439.635,2,"这个名字有多适合这个图片？?",5,"VCS_280.png",1,"trial_lists/trial_list_1"
"d4iak","请为此图片命名",472.432,32762,"不规则但对称圆滑的图形",3471,476.932,3,"这个名字有多适合这个图片？?",6,"VCS_160.png",1,"trial_lists/trial_list_1"
"d4iak","请为此图片命名",488.49,11521,"将近五边形",1206,490.723,3,"这个名字有多适合这个图片？?",7,"VCS_220.png",1,"trial_lists/trial_list_1"
"d4iak","请为此图片命名",540.664,10836,"等腰三角形",819,542.512,4,"这个名字有多适合这个图片？?",9,"triangle.png",1,"trial_lists/trial_list_1"
"d4iak","请为此图片命名",555.996,13451,"莫名其妙2",1763,558.784,2,"这个名字有多适合这个图片？?",10,"VCS_100.png",1,"trial_lists/trial_list_1"
"d4iak","请为此图片命名",571.856,13036,"正方形",649,573.528,4,"这个名字有多适合这个图片？?",11,"square.png",1,"trial_lists/trial_list_1"
"d4iak","请为此图片命名",599.594,26043,"游走的细胞",2789,603.413,3,"这个名字有多适合这个图片？?",12,"VCS_70.png",1,"trial_lists/trial_list_1"
"d4iak","请为此图片命名",630.415,26967,"忍者飞镖变形记",707,632.149,3,"这个名字有多适合这个图片？?",13,"VCS_40.png",1,"trial_lists/trial_list_1"
"d4iak","请为此图片命名",648.105,15913,"胖厨师帽",1528,650.659,2,"这个名字有多适合这个图片？?",14,"VCS_250.png",1,"trial_lists/trial_list_1"
"d4iak","请为此图片命名",527.65,36885,"莫名其妙",1112,529.789,2,"这个名字有多适合这个图片？?",8,"VCS_130.png",1,"trial_lists/trial_list_1"
"d4iak","请为此图片命名",670.4,19708,"这是啥",1872,673.298,4,"这个名字有多适合这个图片？?",15,"VCS_10.png",1,"trial_lists/trial_list_1"
"DJxcs","请为此图片命名",65.173,35372,"泡泡",25405,91.587,2,"这个名字有多适合这个图片？?",1,"VCS_70.png",1,"trial_lists/trial_list_1"
"DJxcs","请为此图片命名",101.215,9617,"星星",1819,104.042,3,"这个名字有多适合这个图片？?",2,"VCS_340.png",1,"trial_lists/trial_list_1"
"DJxcs","请为此图片命名",118.379,14332,"田地",3440,122.832,2,"这个名字有多适合这个图片？?",3,"square.png",1,"trial_lists/trial_list_1"
"DJxcs","请为此图片命名",134.543,11706,"陶壺",2022,137.57,2,"这个名字有多适合这个图片？?",4,"VCS_190.png",1,"trial_lists/trial_list_1"
"DJxcs","请为此图片命名",168.688,31110,"忍者的迴力鏢",2636,172.334,2,"这个名字有多适合这个图片？?",5,"VCS_10.png",1,"trial_lists/trial_list_1"
"DJxcs","请为此图片命名",198.104,25763,"水井",5741,204.849,1,"这个名字有多适合这个图片？?",6,"VCS_220.png",1,"trial_lists/trial_list_1"
"DJxcs","请为此图片命名",245.072,40218,"兔子的臉",2755,248.835,2,"这个名字有多适合这个图片？?",7,"VCS_130.png",1,"trial_lists/trial_list_1"
"DJxcs","请为此图片命名",272.047,23205,"小丑的帽子",4508,277.562,2,"这个名字有多适合这个图片？?",8,"VCS_280.png",1,"trial_lists/trial_list_1"
"DJxcs","请为此图片命名",307.925,30358,"三角形",2560,311.495,4,"这个名字有多适合这个图片？?",9,"triangle.png",1,"trial_lists/trial_list_1"
"DJxcs","请为此图片命名",328.535,17032,"水漬",2972,332.511,2,"这个名字有多适合这个图片？?",10,"VCS_40.png",1,"trial_lists/trial_list_1"
"DJxcs","请为此图片命名",424.951,92435,"裝沙拉的容器",1381,427.337,1,"这个名字有多适合这个图片？?",11,"VCS_250.png",1,"trial_lists/trial_list_1"
"DJxcs","请为此图片命名",444.552,17208,"小狗",3186,448.749,4,"这个名字有多适合这个图片？?",12,"dog.png",1,"trial_lists/trial_list_1"
"DJxcs","请为此图片命名",482.802,34047,"裝飾品",1931,485.743,1,"这个名字有多适合这个图片？?",13,"VCS_310.png",1,"trial_lists/trial_list_1"
"DJxcs","请为此图片命名",516.378,30628,"小孩子的洋裝",2233,519.617,2,"这个名字有多适合这个图片？?",14,"VCS_100.png",1,"trial_lists/trial_list_1"
"DJxcs","请为此图片命名",532.654,13031,"水缸",1629,535.293,3,"这个名字有多适合这个图片？?",15,"VCS_160.png",1,"trial_lists/trial_list_1"
"DPqV1","请为此图片命名",218.874,26290,"面包",20667,240.551,2,"这个名字有多适合这个图片？?",1,"VCS_190.png",1,"trial_lists/trial_list_1"
"DPqV1","请为此图片命名",277.619,37048,"十字",4183,282.808,3,"这个名字有多适合这个图片？?",2,"VCS_70.png",1,"trial_lists/trial_list_1"
"DPqV1","请为此图片命名",504.224,221398,"v+扇形",4327,509.562,1,"这个名字有多适合这个图片？?",3,"VCS_100.png",1,"trial_lists/trial_list_1"
"DPqV1","请为此图片命名",561.934,52344,"变形四角星",2190,565.139,2,"这个名字有多适合这个图片？?",4,"VCS_310.png",1,"trial_lists/trial_list_1"
"DPqV1","请为此图片命名",590.386,25222,"变形四角星",1377,592.767,2,"这个名字有多适合这个图片？?",5,"VCS_340.png",1,"trial_lists/trial_list_1"
"DPqV1","请为此图片命名",620.012,27226,"标准四角星",1976,622.992,2,"这个名字有多适合这个图片？?",6,"VCS_10.png",1,"trial_lists/trial_list_1"
"DPqV1","请为此图片命名",631.729,8717,"等腰三角形",3772,636.507,4,"这个名字有多适合这个图片？?",7,"triangle.png",1,"trial_lists/trial_list_1"
"DPqV1","请为此图片命名",640.656,4130,"正方形",1537,643.197,4,"这个名字有多适合这个图片？?",8,"square.png",1,"trial_lists/trial_list_1"
"DPqV1","请为此图片命名",690.455,47238,"s礼服",5282,696.743,2,"这个名字有多适合这个图片？?",9,"VCS_160.png",1,"trial_lists/trial_list_1"
"DPqV1","请为此图片命名",707.024,10262,"五边形",2297,710.325,3,"这个名字有多适合这个图片？?",10,"VCS_220.png",1,"trial_lists/trial_list_1"
"DPqV1","请为此图片命名",887.524,177179,"s礼服长",1436,889.964,1,"这个名字有多适合这个图片？?",11,"VCS_130.png",1,"trial_lists/trial_list_1"
"DPqV1","请为此图片命名",929.781,39797,"五角星底方",3511,934.298,2,"这个名字有多适合这个图片？?",12,"VCS_280.png",1,"trial_lists/trial_list_1"
"DPqV1","请为此图片命名",959.211,24894,"五角星底方",2963,963.178,2,"这个名字有多适合这个图片？?",13,"VCS_250.png",1,"trial_lists/trial_list_1"
"DPqV1","请为此图片命名",973.438,10242,"狗",4541,978.985,3,"这个名字有多适合这个图片？?",14,"dog.png",1,"trial_lists/trial_list_1"
"DPqV1","请为此图片命名",1005.818,26814,"x形",4025,1010.849,2,"这个名字有多适合这个图片？?",15,"VCS_40.png",1,"trial_lists/trial_list_1"
"E6Usn","请为此图片命名",86.899,41391,"正方形",1984,89.893,4,"这个名字有多适合这个图片？",2,"square.png",3,"trial_lists/trial_list_3"
"E6Usn","请为此图片命名",127.692,37789,"官帽",2619,131.32,3,"这个名字有多适合这个图片？",3,"VCS_270.png",3,"trial_lists/trial_list_3"
"E6Usn","请为此图片命名",147.883,16555,"星星",9788,158.682,3,"这个名字有多适合这个图片？",4,"VCS_360.png",3,"trial_lists/trial_list_3"
"E6Usn","请为此图片命名",189.072,30381,"犬类",59772,249.852,2,"这个名字有多适合这个图片？",5,"dog.png",3,"trial_lists/trial_list_3"
"E6Usn","请为此图片命名",281.189,31329,"兔耳朵",101843,384.041,3,"这个名字有多适合这个图片？",6,"VCS_90.png",3,"trial_lists/trial_list_3"
"E6Usn","请为此图片命名",738.285,354234,"园角 x",2696,741.988,2,"这个名字有多适合这个图片？",7,"VCS_60.png",3,"trial_lists/trial_list_3"
"E6Usn","请为此图片命名",780.528,38529,"3角官帽",1825,783.361,3,"这个名字有多适合这个图片？",8,"VCS_240.png",3,"trial_lists/trial_list_3"
"E6Usn","请为此图片命名",829.079,45710,"侧突三角帽",2524,832.61,2,"这个名字有多适合这个图片？",9,"VCS_210.png",3,"trial_lists/trial_list_3"
"E6Usn","请为此图片命名",869.226,36606,"张开的嘴巴",3824,874.057,2,"这个名字有多适合这个图片？",10,"VCS_150.png",3,"trial_lists/trial_list_3"
"E6Usn","请为此图片命名",924.613,50547,"狐狸脸",2685,928.307,2,"这个名字有多适合这个图片？",11,"VCS_120.png",3,"trial_lists/trial_list_3"
"E6Usn","请为此图片命名",948.435,20118,"平头胖脸",2169,951.612,2,"这个名字有多适合这个图片？",12,"VCS_180.png",3,"trial_lists/trial_list_3"
"E6Usn","请为此图片命名",1092.213,140593,"两腿并拢的五角星",2344,1095.566,3,"这个名字有多适合这个图片？",13,"VCS_300.png",3,"trial_lists/trial_list_3"
"E6Usn","请为此图片命名",1115.859,20283,"长腰三角",1682,1118.548,3,"这个名字有多适合这个图片？",14,"triangle.png",3,"trial_lists/trial_list_3"
"E6Usn","请为此图片命名",1388.77,270213,"三角+菱形角",1630,1391.408,2,"这个名字有多适合这个图片？",15,"VCS_330.png",3,"trial_lists/trial_list_3"
"eCu6F","请为此图片命名",103.033,37344,"罐子",5978,110.025,1,"这个名字有多适合这个图片？?",1,"VCS_160.png",1,"trial_lists/trial_list_1"
"eCu6F","请为此图片命名",116.507,6455,"狗",3642,121.155,3,"这个名字有多适合这个图片？?",2,"dog.png",1,"trial_lists/trial_list_1"
"eCu6F","请为此图片命名",131.887,10714,"五边形",1665,134.558,2,"这个名字有多适合这个图片？?",3,"VCS_220.png",1,"trial_lists/trial_list_1"
"eCu6F","请为此图片命名",158.868,24290,"海星",1368,161.243,1,"这个名字有多适合这个图片？?",4,"VCS_340.png",1,"trial_lists/trial_list_1"
"eCu6F","请为此图片命名",194.339,33070,"九边形",1238,196.582,1,"这个名字有多适合这个图片？?",5,"VCS_280.png",1,"trial_lists/trial_list_1"
"eCu6F","请为此图片命名",310.235,113626,"拟方形",1039,312.28,1,"这个名字有多适合这个图片？?",6,"VCS_190.png",1,"trial_lists/trial_list_1"
"eCu6F","请为此图片命名",320.585,8279,"等腰三角形",2775,324.367,2,"这个名字有多适合这个图片？?",7,"triangle.png",1,"trial_lists/trial_list_1"
"eCu6F","请为此图片命名",338.709,14319,"弧线",1157,340.881,1,"这个名字有多适合这个图片？?",8,"VCS_100.png",1,"trial_lists/trial_list_1"
"eCu6F","请为此图片命名",361.28,20375,"收缩",2400,364.686,1,"这个名字有多适合这个图片？?",9,"VCS_40.png",1,"trial_lists/trial_list_1"
"eCu6F","请为此图片命名",373.393,8678,"正方形",3342,377.74,3,"这个名字有多适合这个图片？?",10,"square.png",1,"trial_lists/trial_list_1"
"eCu6F","请为此图片命名",424.872,47104,"四角星",1734,427.613,1,"这个名字有多适合这个图片？?",11,"VCS_10.png",1,"trial_lists/trial_list_1"
"eCu6F","请为此图片命名",451.706,24066,"飞机",1122,453.834,1,"这个名字有多适合这个图片？?",12,"VCS_310.png",1,"trial_lists/trial_list_1"
"eCu6F","请为此图片命名",469.868,16008,"九边形",1664,472.536,1,"这个名字有多适合这个图片？?",13,"VCS_250.png",1,"trial_lists/trial_list_1"
"eCu6F","请为此图片命名",480.991,8429,"海绵",3939,485.937,1,"这个名字有多适合这个图片？?",14,"VCS_70.png",1,"trial_lists/trial_list_1"
"eCu6F","请为此图片命名",525.135,39172,"跳跃",1637,527.777,1,"这个名字有多适合这个图片？?",15,"VCS_130.png",1,"trial_lists/trial_list_1"
"EmVa7","请为此图片命名",38.749,19989,"晋建强",17944,57.747,3,"这个名字有多适合这个图片？",1,"VCS_80.png",2,"trial_lists/trial_list_2"
"EmVa7","请为此图片命名",164.636,106814,"小饼干",8811,174.488,4,"这个名字有多适合这个图片？",2,"VCS_50.png",2,"trial_lists/trial_list_2"
"EmVa7","请为此图片命名",210.187,35622,"飞翔大雁",2260,213.489,4,"这个名字有多适合这个图片？",3,"VCS_20.png",2,"trial_lists/trial_list_2"
"EmVa7","请为此图片命名",240.331,26774,"轰炸机",3546,244.916,4,"这个名字有多适合这个图片？",4,"VCS_320.png",2,"trial_lists/trial_list_2"
"EmVa7","请为此图片命名",268.996,24021,"小猫咪",2915,272.948,3,"这个名字有多适合这个图片？",5,"VCS_140.png",2,"trial_lists/trial_list_2"
"EmVa7","请为此图片命名",306.957,33929,"城堡",3441,311.429,2,"这个名字有多适合这个图片？",6,"square.png",2,"trial_lists/trial_list_2"
"EmVa7","请为此图片命名",355.029,43535,"大面孔",5260,361.333,3,"这个名字有多适合这个图片？",7,"VCS_170.png",2,"trial_lists/trial_list_2"
"EmVa7","请为此图片命名",383.775,22370,"米仓",2767,387.579,4,"这个名字有多适合这个图片？",8,"VCS_200.png",2,"trial_lists/trial_list_2"
"EmVa7","请为此图片命名",423.495,35833,"水滴",3029,427.563,3,"这个名字有多适合这个图片？",9,"VCS_110.png",2,"trial_lists/trial_list_2"
"EmVa7","请为此图片命名",443.683,16050,"海星",3143,447.866,4,"这个名字有多适合这个图片？",10,"VCS_350.png",2,"trial_lists/trial_list_2"
"EmVa7","请为此图片命名",482.128,34200,"看门门卫",2071,485.24,4,"这个名字有多适合这个图片？",11,"dog.png",2,"trial_lists/trial_list_2"
"EmVa7","请为此图片命名",511.571,26270,"奖牌",2491,515.096,4,"这个名字有多适合这个图片？",12,"VCS_260.png",2,"trial_lists/trial_list_2"
"EmVa7","请为此图片命名",553.617,38482,"放飞的风筝",2036,556.693,4,"这个名字有多适合这个图片？",13,"VCS_290.png",2,"trial_lists/trial_list_2"
"EmVa7","请为此图片命名",595.322,38556,"支点",1737,598.097,4,"这个名字有多适合这个图片？",14,"triangle.png",2,"trial_lists/trial_list_2"
"EmVa7","请为此图片命名",625.462,27301,"又是一个奖牌",1756,628.259,4,"这个名字有多适合这个图片？",15,"VCS_230.png",2,"trial_lists/trial_list_2"
"f19mb","请为此图片命名",93.133,33349,"肚兜",12470,106.63,2,"这个名字有多适合这个图片？?",1,"VCS_130.png",1,"trial_lists/trial_list_1"
"f19mb","请为此图片命名",170.955,64297,"圆头十字",1925,173.904,3,"这个名字有多适合这个图片？?",2,"VCS_40.png",1,"trial_lists/trial_list_1"
"f19mb","请为此图片命名",202.073,28143,"等边锐角三角形",1976,205.077,4,"这个名字有多适合这个图片？?",3,"triangle.png",1,"trial_lists/trial_list_1"
"f19mb","请为此图片命名",315.73,83961,"方底三尖",3074,319.824,3,"这个名字有多适合这个图片？?",5,"VCS_280.png",1,"trial_lists/trial_list_1"
"f19mb","请为此图片命名",340.822,20972,"手绘五边形",2051,343.9,3,"这个名字有多适合这个图片？?",6,"VCS_220.png",1,"trial_lists/trial_list_1"
"f19mb","请为此图片命名",459.811,115885,"一支较粗十字星",1986,462.814,1,"这个名字有多适合这个图片？?",7,"VCS_340.png",1,"trial_lists/trial_list_1"
"f19mb","请为此图片命名",477.677,14836,"正方形",1481,480.182,4,"这个名字有多适合这个图片？?",8,"square.png",1,"trial_lists/trial_list_1"
"f19mb","请为此图片命名",542.904,62698,"背部后腿尾巴无毛狗",2658,546.589,3,"这个名字有多适合这个图片？?",9,"dog.png",1,"trial_lists/trial_list_1"
"f19mb","请为此图片命名",585.379,38762,"青蛙脸形",4008,590.408,2,"这个名字有多适合这个图片？?",10,"VCS_160.png",1,"trial_lists/trial_list_1"
"f19mb","请为此图片命名",674.177,46234,"圆角十字星",4792,679.995,3,"这个名字有多适合这个图片？?",12,"VCS_10.png",1,"trial_lists/trial_list_1"
"f19mb","请为此图片命名",745.097,65078,"李大嘴脸型",1491,747.606,1,"这个名字有多适合这个图片？?",13,"VCS_190.png",1,"trial_lists/trial_list_1"
"f19mb","请为此图片命名",855.253,107620,"小燕子形",1199,857.471,1,"这个名字有多适合这个图片？?",14,"VCS_310.png",1,"trial_lists/trial_list_1"
"f19mb","请为此图片命名",918.015,60515,"短耳兔子形",1780,920.813,1,"这个名字有多适合这个图片？?",15,"VCS_100.png",1,"trial_lists/trial_list_1"
"F5TqK","请为此图片命名",28.2,23765,"白",10546,39.756,2,"这个名字有多适合这个图片？?",1,"square.png",1,"trial_lists/trial_list_1"
"F5TqK","请为此图片命名",54.541,14777,"五方",5576,61.126,2,"这个名字有多适合这个图片？?",2,"VCS_220.png",1,"trial_lists/trial_list_1"
"F5TqK","请为此图片命名",81.145,20012,"半个星",1218,83.37,2,"这个名字有多适合这个图片？?",3,"VCS_250.png",1,"trial_lists/trial_list_1"
"F5TqK","请为此图片命名",110.558,27181,"罐子",975,112.541,2,"这个名字有多适合这个图片？?",4,"VCS_190.png",1,"trial_lists/trial_list_1"
"F5TqK","请为此图片命名",169.876,28934,"三角星",1647,172.53,2,"这个名字有多适合这个图片？?",7,"VCS_310.png",1,"trial_lists/trial_list_1"
"F5TqK","请为此图片命名",182.126,9588,"平罐子",1217,184.35,2,"这个名字有多适合这个图片？?",8,"VCS_160.png",1,"trial_lists/trial_list_1"
"F5TqK","请为此图片命名",198.855,14498,"直三角星",960,200.822,2,"这个名字有多适合这个图片？?",9,"VCS_280.png",1,"trial_lists/trial_list_1"
"F5TqK","请为此图片命名",214.926,14091,"小饼干",918,216.851,2,"这个名字有多适合这个图片？?",10,"VCS_70.png",1,"trial_lists/trial_list_1"
"F5TqK","请为此图片命名",228.195,11337,"凹罐子",2413,231.616,2,"这个名字有多适合这个图片？?",11,"VCS_130.png",1,"trial_lists/trial_list_1"
"F5TqK","请为此图片命名",237.26,5637,"四角",3382,241.648,3,"这个名字有多适合这个图片？?",12,"VCS_10.png",1,"trial_lists/trial_list_1"
"F5TqK","请为此图片命名",252.381,10725,"尖四角",1248,254.636,2,"这个名字有多适合这个图片？?",13,"VCS_340.png",1,"trial_lists/trial_list_1"
"F5TqK","请为此图片命名",264.73,10086,"圆四角",1472,267.211,2,"这个名字有多适合这个图片？?",14,"VCS_40.png",1,"trial_lists/trial_list_1"
"F5TqK","请为此图片命名",280.85,13610,"狗子",2312,284.169,4,"这个名字有多适合这个图片？?",15,"dog.png",1,"trial_lists/trial_list_1"
"fCqZa","请为此图片命名",5.931,2553,"啊啊啊",2273,9.217,3,"这个名字有多适合这个图片？",1,"VCS_50.png",2,"trial_lists/trial_list_2"
"fCqZa","请为此图片命名",15.371,6142,"三角",2300,18.678,1,"这个名字有多适合这个图片？",2,"triangle.png",2,"trial_lists/trial_list_2"
"fCqZa","请为此图片命名",24.235,5547,"四角星",2348,27.591,3,"这个名字有多适合这个图片？",3,"VCS_320.png",2,"trial_lists/trial_list_2"
"fCqZa","请为此图片命名",33.218,5617,"盾",1814,36.038,1,"这个名字有多适合这个图片？",4,"VCS_200.png",2,"trial_lists/trial_list_2"
"fCqZa","请为此图片命名",40.706,4661,"雨衣",2053,43.766,2,"这个名字有多适合这个图片？",5,"VCS_140.png",2,"trial_lists/trial_list_2"
"fCqZa","请为此图片命名",56.148,12372,"海星",1769,58.929,2,"这个名字有多适合这个图片？",6,"VCS_20.png",2,"trial_lists/trial_list_2"
"fCqZa","请为此图片命名",68.236,9300,"兔头",1394,70.639,2,"这个名字有多适合这个图片？",7,"VCS_110.png",2,"trial_lists/trial_list_2"
"fCqZa","请为此图片命名",75.107,4458,"雨衣",1406,77.519,2,"这个名字有多适合这个图片？",8,"VCS_290.png",2,"trial_lists/trial_list_2"
"fCqZa","请为此图片命名",89.107,11579,"袋子",1484,91.598,2,"这个名字有多适合这个图片？",9,"VCS_230.png",2,"trial_lists/trial_list_2"
"fCqZa","请为此图片命名",97.643,6036,"方框",1550,100.197,2,"这个名字有多适合这个图片？",10,"square.png",2,"trial_lists/trial_list_2"
"fCqZa","请为此图片命名",105.188,4984,"哈哈",2114,108.311,2,"这个名字有多适合这个图片？",11,"VCS_170.png",2,"trial_lists/trial_list_2"
"fCqZa","请为此图片命名",115.155,6835,"兔头",1261,117.422,2,"这个名字有多适合这个图片？",12,"VCS_80.png",2,"trial_lists/trial_list_2"
"fCqZa","请为此图片命名",120.275,2845,"雨衣",1010,122.295,2,"这个名字有多适合这个图片？",13,"VCS_260.png",2,"trial_lists/trial_list_2"
"fCqZa","请为此图片命名",130.227,7924,"狗",1345,132.582,2,"这个名字有多适合这个图片？",14,"dog.png",2,"trial_lists/trial_list_2"
"fCqZa","请为此图片命名",136.954,4365,"海星",1237,139.199,2,"这个名字有多适合这个图片？",15,"VCS_350.png",2,"trial_lists/trial_list_2"
"FEt2A","请为此图片命名",82.583,32580,"等腰三角形",8526,92.129,4,"这个名字有多适合这个图片？",1,"triangle.png",2,"trial_lists/trial_list_2"
"FEt2A","请为此图片命名",98.636,6472,"正方形",1146,100.792,4,"这个名字有多适合这个图片？",2,"square.png",2,"trial_lists/trial_list_2"
"FEt2A","请为此图片命名",270.638,169815,"平底五角心",6829,278.474,2,"这个名字有多适合这个图片？",3,"VCS_260.png",2,"trial_lists/trial_list_2"
"FEt2A","请为此图片命名",632.254,353740,"内凹倒梯形",2783,636.082,2,"这个名字有多适合这个图片？",4,"VCS_140.png",2,"trial_lists/trial_list_2"
"FEt2A","请为此图片命名",740.253,104118,"右倾尖角十字",3619,744.882,3,"这个名字有多适合这个图片？",5,"VCS_20.png",2,"trial_lists/trial_list_2"
"FEt2A","请为此图片命名",777.659,32741,"右倾尖角十字",1806,780.472,3,"这个名字有多适合这个图片？",6,"VCS_350.png",2,"trial_lists/trial_list_2"
"FEt2A","请为此图片命名",829.457,48945,"鼻子创口贴",7702,838.165,3,"这个名字有多适合这个图片？",7,"VCS_80.png",2,"trial_lists/trial_list_2"
"FEt2A","请为此图片命名",888.124,49929,"内凹倒三角",2561,891.694,2,"这个名字有多适合这个图片？",8,"VCS_110.png",2,"trial_lists/trial_list_2"
"FEt2A","请为此图片命名",948.233,56501,"腰凹倒三角",2689,951.928,4,"这个名字有多适合这个图片？",9,"VCS_170.png",2,"trial_lists/trial_list_2"
"FEt2A","请为此图片命名",974.918,22958,"窄平底五角星",2294,978.223,3,"这个名字有多适合这个图片？",10,"VCS_290.png",2,"trial_lists/trial_list_2"
"FEt2A","请为此图片命名",1018.412,40154,"底顿角十字飞镖",2724,1022.142,3,"这个名字有多适合这个图片？",11,"VCS_320.png",2,"trial_lists/trial_list_2"
"FEt2A","请为此图片命名",1060.305,38136,"平底钝角五角星",2023,1063.337,3,"这个名字有多适合这个图片？",12,"VCS_230.png",2,"trial_lists/trial_list_2"
"FEt2A","请为此图片命名",1091.98,28605,"平底曲五角星",16172,1109.162,2,"这个名字有多适合这个图片？",13,"VCS_200.png",2,"trial_lists/trial_list_2"
"FEt2A","请为此图片命名",1450.205,341008,"圆角X形",24115,1475.349,4,"这个名字有多适合这个图片？",14,"VCS_50.png",2,"trial_lists/trial_list_2"
"FEt2A","请为此图片命名",1532.061,56658,"正在脱毛狼狗",2978,1536.046,2,"这个名字有多适合这个图片？",15,"dog.png",2,"trial_lists/trial_list_2"
"fL3qJ","请为此图片命名",26.677,15248,"狗",17035,44.72,2,"这个名字有多适合这个图片？",1,"dog.png",2,"trial_lists/trial_list_2"
"fL3qJ","请为此图片命名",51.064,6325,"五角星",4817,56.886,3,"这个名字有多适合这个图片？",2,"VCS_230.png",2,"trial_lists/trial_list_2"
"fL3qJ","请为此图片命名",61.979,5074,"盾牌",1286,64.27,3,"这个名字有多适合这个图片？",3,"VCS_200.png",2,"trial_lists/trial_list_2"
"fL3qJ","请为此图片命名",95.112,30823,"弧形盾牌",1721,97.837,2,"这个名字有多适合这个图片？",4,"VCS_170.png",2,"trial_lists/trial_list_2"
"Gkhvw","请为此图片命名",53.498,31030,"折纸星",13509,68.015,3,"这个名字有多适合这个图片？",1,"VCS_210.png",3,"trial_lists/trial_list_3"
"Gkhvw","请为此图片命名",92.894,24852,"狼狗",3479,97.379,4,"这个名字有多适合这个图片？",2,"dog.png",3,"trial_lists/trial_list_3"
"Gkhvw","请为此图片命名",300.681,203279,"一个角像匕首的四角星",3952,305.644,1,"这个名字有多适合这个图片？",3,"VCS_330.png",3,"trial_lists/trial_list_3"
"Gkhvw","请为此图片命名",316.42,10731,"瘦等腰三角形",7007,324.433,3,"这个名字有多适合这个图片？",4,"triangle.png",3,"trial_lists/trial_list_3"
"Gkhvw","请为此图片命名",403.949,79489,"张开双手的西方鬼",3231,408.185,2,"这个名字有多适合这个图片？",5,"VCS_120.png",3,"trial_lists/trial_list_3"
"Gkhvw","请为此图片命名",446.976,38761,"四角飞镖",1289,449.278,3,"这个名字有多适合这个图片？",6,"VCS_360.png",3,"trial_lists/trial_list_3"
"Gkhvw","请为此图片命名",481.625,32307,"半个五角星放在方形上",1554,484.185,2,"这个名字有多适合这个图片？",7,"VCS_270.png",3,"trial_lists/trial_list_3"
"Gkhvw","请为此图片命名",513.701,29491,"四边凹陷的方形",2607,517.316,2,"这个名字有多适合这个图片？",8,"VCS_60.png",3,"trial_lists/trial_list_3"
"Gkhvw","请为此图片命名",542.429,25087,"王冠",4658,548.095,2,"这个名字有多适合这个图片？",9,"VCS_240.png",3,"trial_lists/trial_list_3"
"Gkhvw","请为此图片命名",562.399,14280,"胖花瓶",1915,565.321,1,"这个名字有多适合这个图片？",10,"VCS_150.png",3,"trial_lists/trial_list_3"
"Gkhvw","请为此图片命名",580.403,15056,"三边捏扁的方形",2230,583.639,2,"这个名字有多适合这个图片？",11,"VCS_90.png",3,"trial_lists/trial_list_3"
"Gkhvw","请为此图片命名",613.76,30097,"五角星放在麦当劳薯条盒里",3522,618.29,1,"这个名字有多适合这个图片？",12,"VCS_300.png",3,"trial_lists/trial_list_3"
"Gkhvw","请为此图片命名",624.776,6459,"正方形",8618,634.399,4,"这个名字有多适合这个图片？",13,"square.png",3,"trial_lists/trial_list_3"
"Gkhvw","请为此图片命名",678.365,43941,"方形四边捏扁",1687,681.06,2,"这个名字有多适合这个图片？",14,"VCS_30.png",3,"trial_lists/trial_list_3"
"Gkhvw","请为此图片命名",706.993,25908,"吐司形",4149,712.15,2,"这个名字有多适合这个图片？",15,"VCS_180.png",3,"trial_lists/trial_list_3"
"gyAXq","请为此图片命名",34.754,10385,"鬼",2424,38.216,3,"这个名字有多适合这个图片？",1,"VCS_320.png",2,"trial_lists/trial_list_2"
"gyAXq","请为此图片命名",178.675,140425,"吠",2476,182.177,4,"这个名字有多适合这个图片？",2,"dog.png",2,"trial_lists/trial_list_2"
"gyAXq","请为此图片命名",196.23,14027,"准星",1252,198.508,4,"这个名字有多适合这个图片？",3,"VCS_20.png",2,"trial_lists/trial_list_2"
"gyAXq","请为此图片命名",209.765,11230,"耶",1320,212.123,4,"这个名字有多适合这个图片？",4,"VCS_80.png",2,"trial_lists/trial_list_2"
"gyAXq","请为此图片命名",221.736,9575,"花瓶",956,223.721,4,"这个名字有多适合这个图片？",5,"VCS_170.png",2,"trial_lists/trial_list_2"
"gyAXq","请为此图片命名",236.579,12825,"曼妙",1603,239.209,4,"这个名字有多适合这个图片？",6,"VCS_140.png",2,"trial_lists/trial_list_2"
"gyAXq","请为此图片命名",280.097,40853,"飞镖",986,282.111,4,"这个名字有多适合这个图片？",7,"VCS_350.png",2,"trial_lists/trial_list_2"
"gyAXq","请为此图片命名",295.076,12933,"哈利路亚",1179,297.278,3,"这个名字有多适合这个图片？",8,"VCS_260.png",2,"trial_lists/trial_list_2"
"gyAXq","请为此图片命名",307.841,10524,"厨师",1277,310.146,3,"这个名字有多适合这个图片？",9,"VCS_290.png",2,"trial_lists/trial_list_2"
"gyAXq","请为此图片命名",335.157,24973,"卫生棉",2159,338.343,3,"这个名字有多适合这个图片？",10,"VCS_50.png",2,"trial_lists/trial_list_2"
"gyAXq","请为此图片命名",363.733,25347,"麦芬",981,365.741,4,"这个名字有多适合这个图片？",11,"VCS_230.png",2,"trial_lists/trial_list_2"
"gyAXq","请为此图片命名",405.853,40089,"酒缸",1445,408.326,4,"这个名字有多适合这个图片？",12,"VCS_200.png",2,"trial_lists/trial_list_2"
"gyAXq","请为此图片命名",418.001,9645,"裙子",1548,420.581,3,"这个名字有多适合这个图片？",13,"VCS_110.png",2,"trial_lists/trial_list_2"
"gyAXq","请为此图片命名",428.444,7830,"方",873,430.345,4,"这个名字有多适合这个图片？",14,"square.png",2,"trial_lists/trial_list_2"
"gyAXq","请为此图片命名",438.289,7913,"金字塔",1185,440.5,4,"这个名字有多适合这个图片？",15,"triangle.png",2,"trial_lists/trial_list_2"
"hBcPI","请为此图片命名",240.245,22258,"方四角星",4473,245.729,2,"这个名字有多适合这个图片？",1,"VCS_290.png",2,"trial_lists/trial_list_2"
"hBcPI","请为此图片命名",253.669,7932,"熊",2814,257.489,1,"这个名字有多适合这个图片？",2,"VCS_170.png",2,"trial_lists/trial_list_2"
"hBcPI","请为此图片命名",261.878,4382,"狗",2309,265.196,4,"这个名字有多适合这个图片？",3,"dog.png",2,"trial_lists/trial_list_2"
"hBcPI","请为此图片命名",274.415,9208,"鼠",2713,278.134,2,"这个名字有多适合这个图片？",4,"VCS_110.png",2,"trial_lists/trial_list_2"
"hBcPI","请为此图片命名",308.55,30402,"圆四角星",1566,311.123,2,"这个名字有多适合这个图片？",5,"VCS_20.png",2,"trial_lists/trial_list_2"
"hBcPI","请为此图片命名",317.322,6188,"四角星",3061,321.392,3,"这个名字有多适合这个图片？",6,"VCS_350.png",2,"trial_lists/trial_list_2"
"hBcPI","请为此图片命名",331.001,9600,"方",5444,337.452,1,"这个名字有多适合这个图片？",7,"square.png",2,"trial_lists/trial_list_2"
"hBcPI","请为此图片命名",348.068,10608,"球四角星",1906,350.981,1,"这个名字有多适合这个图片？",8,"VCS_50.png",2,"trial_lists/trial_list_2"
"hBcPI","请为此图片命名",410.044,59055,"五边四角星",2478,413.529,1,"这个名字有多适合这个图片？",9,"VCS_320.png",2,"trial_lists/trial_list_2"
"hBcPI","请为此图片命名",449.357,35821,"支架",1838,452.201,1,"这个名字有多适合这个图片？",10,"VCS_80.png",2,"trial_lists/trial_list_2"
"hBcPI","请为此图片命名",457.837,5625,"方五角星",1731,460.576,2,"这个名字有多适合这个图片？",11,"VCS_260.png",2,"trial_lists/trial_list_2"
"hBcPI","请为此图片命名",475.318,14733,"尖三角",1700,478.025,2,"这个名字有多适合这个图片？",12,"triangle.png",2,"trial_lists/trial_list_2"
"hBcPI","请为此图片命名",506.846,28811,"五边形",3138,510.99,1,"这个名字有多适合这个图片？",13,"VCS_230.png",2,"trial_lists/trial_list_2"
"hBcPI","请为此图片命名",530.485,19487,"盾甲",1543,533.035,1,"这个名字有多适合这个图片？",14,"VCS_200.png",2,"trial_lists/trial_list_2"
"hBcPI","请为此图片命名",543.533,10488,"猫",4467,549.006,1,"这个名字有多适合这个图片？",15,"VCS_140.png",2,"trial_lists/trial_list_2"
"hFtzd","请为此图片命名",85.802,26054,"多角形",3322,90.137,4,"这个名字有多适合这个图片？",1,"VCS_330.png",3,"trial_lists/trial_list_3"
"hFtzd","请为此图片命名",100.992,10837,"多边形",5816,107.815,3,"这个名字有多适合这个图片？",2,"VCS_210.png",3,"trial_lists/trial_list_3"
"hFtzd","请为此图片命名",124.707,16873,"皇冠",7843,133.557,2,"这个名字有多适合这个图片？",3,"VCS_270.png",3,"trial_lists/trial_list_3"
"hFtzd","请为此图片命名",151.773,18197,"胖皇冠",1624,154.404,2,"这个名字有多适合这个图片？",4,"VCS_240.png",3,"trial_lists/trial_list_3"
"hFtzd","请为此图片命名",162.706,8283,"星星",3056,166.768,3,"这个名字有多适合这个图片？",5,"VCS_360.png",3,"trial_lists/trial_list_3"
"hFtzd","请为此图片命名",221.53,54743,"背心",2129,224.668,3,"这个名字有多适合这个图片？",6,"VCS_90.png",3,"trial_lists/trial_list_3"
"hFtzd","请为此图片命名",293.631,68944,"十字飞镖",1768,296.406,2,"这个名字有多适合这个图片？",7,"VCS_60.png",3,"trial_lists/trial_list_3"
"hFtzd","请为此图片命名",306.096,9671,"背心",3225,310.33,2,"这个名字有多适合这个图片？",8,"VCS_120.png",3,"trial_lists/trial_list_3"
"hFtzd","请为此图片命名",341.96,31611,"不规则的石头",2554,345.521,1,"这个名字有多适合这个图片？",9,"VCS_180.png",3,"trial_lists/trial_list_3"
"hFtzd","请为此图片命名",352.621,7081,"三角形",2348,355.977,3,"这个名字有多适合这个图片？",10,"triangle.png",3,"trial_lists/trial_list_3"
"hFtzd","请为此图片命名",374.768,18773,"狗",1110,376.887,4,"这个名字有多适合这个图片？",11,"dog.png",3,"trial_lists/trial_list_3"
"hFtzd","请为此图片命名",384.074,7168,"正方形",1302,386.384,4,"这个名字有多适合这个图片？",12,"square.png",3,"trial_lists/trial_list_3"
"hFtzd","请为此图片命名",396.169,9765,"皇冠",2949,400.126,3,"这个名字有多适合这个图片？",13,"VCS_300.png",3,"trial_lists/trial_list_3"
"hFtzd","请为此图片命名",409.141,8996,"十字飞镖",3184,413.332,2,"这个名字有多适合这个图片？",14,"VCS_30.png",3,"trial_lists/trial_list_3"
"hFtzd","请为此图片命名",418.35,5000,"背心",2599,421.956,2,"这个名字有多适合这个图片？",15,"VCS_150.png",3,"trial_lists/trial_list_3"
"hG4Y7","请为此图片命名",48.945,23201,"五角星",22370,72.331,3,"这个名字有多适合这个图片？",1,"VCS_320.png",2,"trial_lists/trial_list_2"
"hG4Y7","请为此图片命名",115.332,42987,"披风",27516,143.857,4,"这个名字有多适合这个图片？",2,"VCS_200.png",2,"trial_lists/trial_list_2"
"hG4Y7","请为此图片命名",166.809,22942,"一束花",1360,169.181,4,"这个名字有多适合这个图片？",3,"VCS_290.png",2,"trial_lists/trial_list_2"
"hG4Y7","请为此图片命名",190.188,20973,"飞镖",6507,197.705,3,"这个名字有多适合这个图片？",4,"VCS_20.png",2,"trial_lists/trial_list_2"
"hG4Y7","请为此图片命名",211.383,13669,"兔耳朵",7322,219.715,4,"这个名字有多适合这个图片？",5,"VCS_80.png",2,"trial_lists/trial_list_2"
"hG4Y7","请为此图片命名",230.022,10297,"花瓶",2293,233.325,2,"这个名字有多适合这个图片？",6,"VCS_170.png",2,"trial_lists/trial_list_2"
"hG4Y7","请为此图片命名",245.24,11904,"拼图",4686,250.935,4,"这个名字有多适合这个图片？",7,"VCS_50.png",2,"trial_lists/trial_list_2"
"hG4Y7","请为此图片命名",266.937,15995,"尖角",3465,271.409,3,"这个名字有多适合这个图片？",8,"VCS_350.png",2,"trial_lists/trial_list_2"
"hG4Y7","请为此图片命名",281.453,10035,"方框",2136,284.6,4,"这个名字有多适合这个图片？",9,"square.png",2,"trial_lists/trial_list_2"
"hG4Y7","请为此图片命名",296.498,11887,"三角形",1847,299.355,3,"这个名字有多适合这个图片？",10,"triangle.png",2,"trial_lists/trial_list_2"
"hG4Y7","请为此图片命名",333.862,34498,"丑陋的花瓶",3825,338.694,2,"这个名字有多适合这个图片？",11,"VCS_140.png",2,"trial_lists/trial_list_2"
"hG4Y7","请为此图片命名",375.539,36835,"对称图",2567,379.117,3,"这个名字有多适合这个图片？",12,"VCS_260.png",2,"trial_lists/trial_list_2"
"hG4Y7","请为此图片命名",431.469,52343,"缺条线",1891,434.369,2,"这个名字有多适合这个图片？",13,"VCS_230.png",2,"trial_lists/trial_list_2"
"hG4Y7","请为此图片命名",497.214,62835,"流淌的东西",1901,500.125,3,"这个名字有多适合这个图片？",14,"VCS_110.png",2,"trial_lists/trial_list_2"
"hG4Y7","请为此图片命名",523.801,23666,"没有",3361,528.172,4,"这个名字有多适合这个图片？",15,"dog.png",2,"trial_lists/trial_list_2"
"HQ2GW","请为此图片命名",40.69,7440,"正方形",3302,45.025,4,"这个名字有多适合这个图片？?",1,"square.png",1,"trial_lists/trial_list_1"
"HX1ql","请为此图片命名",39.775,20097,"缺角星",7260,48.046,2,"这个名字有多适合这个图片？",1,"VCS_300.png",3,"trial_lists/trial_list_3"
"HX1ql","请为此图片命名",87.354,39288,"类十字星",1123,89.483,2,"这个名字有多适合这个图片？",2,"VCS_330.png",3,"trial_lists/trial_list_3"
"HX1ql","请为此图片命名",265.921,176419,"蜕化的皮毛",1082,268.007,2,"这个名字有多适合这个图片？",3,"dog.png",3,"trial_lists/trial_list_3"
"HX1ql","请为此图片命名",373.061,105036,"瓦片",3121,377.186,2,"这个名字有多适合这个图片？",4,"VCS_150.png",3,"trial_lists/trial_list_3"
"HX1ql","请为此图片命名",773.039,395833,"凹凸",1303,775.348,2,"这个名字有多适合这个图片？",5,"VCS_90.png",3,"trial_lists/trial_list_3"
"HX1ql","请为此图片命名",792.929,17559,"方角星",1937,795.871,2,"这个名字有多适合这个图片？",6,"VCS_270.png",3,"trial_lists/trial_list_3"
"HX1ql","请为此图片命名",1237.774,441884,"柔美曲线",2465,1241.243,2,"这个名字有多适合这个图片？",7,"VCS_120.png",3,"trial_lists/trial_list_3"
"HX1ql","请为此图片命名",1257.025,15761,"三角房",1390,1259.419,2,"这个名字有多适合这个图片？",8,"VCS_240.png",3,"trial_lists/trial_list_3"
"HX1ql","请为此图片命名",1303.856,44418,"海星",1358,1306.219,2,"这个名字有多适合这个图片？",9,"VCS_360.png",3,"trial_lists/trial_list_3"
"HX1ql","请为此图片命名",1322.423,16185,"等腰三角形",1189,1324.616,2,"这个名字有多适合这个图片？",10,"triangle.png",3,"trial_lists/trial_list_3"
"HX1ql","请为此图片命名",1354.432,29797,"活动的海星",3420,1358.857,2,"这个名字有多适合这个图片？",11,"VCS_30.png",3,"trial_lists/trial_list_3"
"HX1ql","请为此图片命名",1388.625,29748,"花瓶",3841,1393.472,2,"这个名字有多适合这个图片？",12,"VCS_180.png",3,"trial_lists/trial_list_3"
"HX1ql","请为此图片命名",1420.555,27066,"柔中带刚",3005,1424.562,2,"这个名字有多适合这个图片？",13,"VCS_210.png",3,"trial_lists/trial_list_3"
"HX1ql","请为此图片命名",1458.335,33753,"柔美",1197,1460.536,2,"这个名字有多适合这个图片？",14,"VCS_60.png",3,"trial_lists/trial_list_3"
"HX1ql","请为此图片命名",1489.624,29070,"方正",13285,1503.915,2,"这个名字有多适合这个图片？",15,"square.png",3,"trial_lists/trial_list_3"
"hzkIv","请为此图片命名",48.391,11271,"五边形",6029,55.438,3,"这个名字有多适合这个图片？?",1,"VCS_220.png",1,"trial_lists/trial_list_1"
"hzkIv","请为此图片命名",80.811,25349,"徽章",2919,84.745,1,"这个名字有多适合这个图片？?",2,"VCS_190.png",1,"trial_lists/trial_list_1"
"hzkIv","请为此图片命名",96.289,11523,"枪尖",4821,102.126,2,"这个名字有多适合这个图片？?",3,"VCS_310.png",1,"trial_lists/trial_list_1"
"hzkIv","请为此图片命名",108.226,6077,"瓶子",1755,110.995,1,"这个名字有多适合这个图片？?",4,"VCS_160.png",1,"trial_lists/trial_list_1"
"hzkIv","请为此图片命名",115.592,4574,"狗",5093,121.704,3,"这个名字有多适合这个图片？?",5,"dog.png",1,"trial_lists/trial_list_1"
"hzkIv","请为此图片命名",127.891,6165,"史莱姆",1155,130.059,1,"这个名字有多适合这个图片？?",6,"VCS_70.png",1,"trial_lists/trial_list_1"
"hzkIv","请为此图片命名",134.214,4134,"衣服",2065,137.294,2,"这个名字有多适合这个图片？?",7,"VCS_100.png",1,"trial_lists/trial_list_1"
"hzkIv","请为此图片命名",156.415,19100,"奇怪的星星",1477,158.91,2,"这个名字有多适合这个图片？?",8,"VCS_280.png",1,"trial_lists/trial_list_1"
"hzkIv","请为此图片命名",182.955,24024,"泳装",2939,186.911,3,"这个名字有多适合这个图片？?",9,"VCS_130.png",1,"trial_lists/trial_list_1"
"hzkIv","请为此图片命名",196.756,9823,"星星",4460,202.234,4,"这个名字有多适合这个图片？?",10,"VCS_10.png",1,"trial_lists/trial_list_1"
"hzkIv","请为此图片命名",211.39,9134,"特别的星星",10509,222.912,2,"这个名字有多适合这个图片？?",11,"VCS_340.png",1,"trial_lists/trial_list_1"
"hzkIv","请为此图片命名",230.545,7619,"框框",962,232.523,2,"这个名字有多适合这个图片？?",12,"square.png",1,"trial_lists/trial_list_1"
"hzkIv","请为此图片命名",238.29,5745,"三角",1320,240.623,2,"这个名字有多适合这个图片？?",13,"triangle.png",1,"trial_lists/trial_list_1"
"hzkIv","请为此图片命名",252.074,11430,"线圈",1099,254.186,1,"这个名字有多适合这个图片？?",14,"VCS_40.png",1,"trial_lists/trial_list_1"
"hzkIv","请为此图片命名",261.983,7776,"平的五角星",2465,265.46,1,"这个名字有多适合这个图片？?",15,"VCS_250.png",1,"trial_lists/trial_list_1"
"IcwkV","请为此图片命名",129.408,31998,"多边形",19691,150.121,3,"这个名字有多适合这个图片？",1,"VCS_270.png",3,"trial_lists/trial_list_3"
"IcwkV","请为此图片命名",180.008,29849,"扭曲多边形",1985,183,3,"这个名字有多适合这个图片？",2,"VCS_180.png",3,"trial_lists/trial_list_3"
"IcwkV","请为此图片命名",215.066,32036,"多边形不直",3673,219.753,3,"这个名字有多适合这个图片？",3,"VCS_210.png",3,"trial_lists/trial_list_3"
"IcwkV","请为此图片命名",245.171,25374,"裙子",3144,249.323,4,"这个名字有多适合这个图片？",4,"VCS_90.png",3,"trial_lists/trial_list_3"
"IcwkV","请为此图片命名",266.934,17580,"闪烁",1257,269.204,4,"这个名字有多适合这个图片？",5,"VCS_360.png",3,"trial_lists/trial_list_3"
"IcwkV","请为此图片命名",303.102,33867,"十字",3749,307.861,2,"这个名字有多适合这个图片？",6,"VCS_30.png",3,"trial_lists/trial_list_3"
"IcwkV","请为此图片命名",340.491,32596,"星星在盆里",1593,343.096,4,"这个名字有多适合这个图片？",7,"VCS_240.png",3,"trial_lists/trial_list_3"
"IcwkV","请为此图片命名",351.342,8215,"空白",2337,354.692,4,"这个名字有多适合这个图片？",8,"square.png",3,"trial_lists/trial_list_3"
"IcwkV","请为此图片命名",379.99,25259,"背心",1371,382.369,3,"这个名字有多适合这个图片？",9,"VCS_60.png",3,"trial_lists/trial_list_3"
"IcwkV","请为此图片命名",390.893,8489,"裙子",2680,394.581,3,"这个名字有多适合这个图片？",10,"VCS_120.png",3,"trial_lists/trial_list_3"
"IcwkV","请为此图片命名",443.536,48920,"十边形",2691,447.237,4,"这个名字有多适合这个图片？",11,"VCS_330.png",3,"trial_lists/trial_list_3"
"IcwkV","请为此图片命名",471.016,23745,"狗",1242,473.269,4,"这个名字有多适合这个图片？",12,"dog.png",3,"trial_lists/trial_list_3"
"IcwkV","请为此图片命名",482.084,8784,"罐子",1548,484.639,4,"这个名字有多适合这个图片？",13,"VCS_150.png",3,"trial_lists/trial_list_3"
"IcwkV","请为此图片命名",494.303,9632,"三角形",1347,496.658,4,"这个名字有多适合这个图片？",14,"triangle.png",3,"trial_lists/trial_list_3"
"IcwkV","请为此图片命名",515.945,19249,"十边形",3537,520.49,4,"这个名字有多适合这个图片？",15,"VCS_300.png",3,"trial_lists/trial_list_3"
"IH24A","请为此图片命名",19.085,7559,"正方形",6651,26.749,3,"这个名字有多适合这个图片？?",1,"square.png",1,"trial_lists/trial_list_1"
"IH24A","请为此图片命名",35.216,8445,"陶器",5811,42.035,2,"这个名字有多适合这个图片？?",2,"VCS_160.png",1,"trial_lists/trial_list_1"
"IH24A","请为此图片命名",52.558,10503,"五角形",2292,55.857,3,"这个名字有多适合这个图片？?",3,"VCS_220.png",1,"trial_lists/trial_list_1"
"iwF3s","请为此图片命名",13.823,10249,"十字架",1680,16.526,3,"这个名字有多适合这个图片？",1,"VCS_320.png",2,"trial_lists/trial_list_2"
"iwF3s","请为此图片命名",22.079,5527,"弹弓",929,24.022,3,"这个名字有多适合这个图片？",2,"VCS_80.png",2,"trial_lists/trial_list_2"
"iwF3s","请为此图片命名",32.177,8130,"椰子",646,33.843,4,"这个名字有多适合这个图片？",3,"VCS_230.png",2,"trial_lists/trial_list_2"
"iwF3s","请为此图片命名",56.984,23119,"瓦罐",1044,59.048,3,"这个名字有多适合这个图片？",4,"VCS_170.png",2,"trial_lists/trial_list_2"
"J7ZrB","请为此图片命名",46.89,13695,"狼狗",8000,55.898,2,"这个名字有多适合这个图片？",1,"dog.png",3,"trial_lists/trial_list_3"
"J7ZrB","请为此图片命名",191.886,135980,"不规则四角飞盘",1933,194.826,3,"这个名字有多适合这个图片？",2,"VCS_60.png",3,"trial_lists/trial_list_3"
"J7ZrB","请为此图片命名",211.011,16178,"等腰锐角三角形",1748,213.767,4,"这个名字有多适合这个图片？",3,"triangle.png",3,"trial_lists/trial_list_3"
"J7ZrB","请为此图片命名",468.988,255214,"上好佳鱼饼干没有头",1356,471.355,4,"这个名字有多适合这个图片？",4,"VCS_120.png",3,"trial_lists/trial_list_3"
"J7ZrB","请为此图片命名",520.246,48859,"拍扁的折纸小星星",986,522.242,4,"这个名字有多适合这个图片？",5,"VCS_240.png",3,"trial_lists/trial_list_3"
"J7ZrB","请为此图片命名",809.705,287438,"拍扁的折纸小星星腮帮子肥大",1721,812.434,2,"这个名字有多适合这个图片？",6,"VCS_210.png",3,"trial_lists/trial_list_3"
"J7ZrB","请为此图片命名",826.499,14058,"飞镖",2736,830.244,4,"这个名字有多适合这个图片？",7,"VCS_360.png",3,"trial_lists/trial_list_3"
"J7ZrB","请为此图片命名",916.633,86382,"飞翔小鸟俯瞰线条画",1362,919.002,2,"这个名字有多适合这个图片？",8,"VCS_330.png",3,"trial_lists/trial_list_3"
"J7ZrB","请为此图片命名",926.178,7169,"正方形",1320,928.505,4,"这个名字有多适合这个图片？",9,"square.png",3,"trial_lists/trial_list_3"
"J7ZrB","请为此图片命名",942.817,14305,"四角飞盘",1200,945.025,3,"这个名字有多适合这个图片？",10,"VCS_30.png",3,"trial_lists/trial_list_3"
"J7ZrB","请为此图片命名",1024.239,79207,"五角星中两角变梯形合并",2002,1027.246,2,"这个名字有多适合这个图片？",11,"VCS_300.png",3,"trial_lists/trial_list_3"
"jaoZm","请为此图片命名",62.053,28512,"五角形",11673,74.738,1,"这个名字有多适合这个图片？?",1,"VCS_280.png",1,"trial_lists/trial_list_1"
"jaoZm","请为此图片命名",91.525,16757,"海星",1490,94.02,2,"这个名字有多适合这个图片？?",2,"VCS_70.png",1,"trial_lists/trial_list_1"
"jaoZm","请为此图片命名",100.837,6794,"兔子",5998,107.839,3,"这个名字有多适合这个图片？?",3,"VCS_100.png",1,"trial_lists/trial_list_1"
"jaoZm","请为此图片命名",130.566,22700,"回旋镖",3141,134.712,3,"这个名字有多适合这个图片？?",4,"VCS_40.png",1,"trial_lists/trial_list_1"
"jaoZm","请为此图片命名",145.503,10762,"五边形",1350,147.858,4,"这个名字有多适合这个图片？?",5,"VCS_220.png",1,"trial_lists/trial_list_1"
"jaoZm","请为此图片命名",161.729,13844,"狼",1461,164.195,4,"这个名字有多适合这个图片？?",6,"dog.png",1,"trial_lists/trial_list_1"
"jaoZm","请为此图片命名",175.062,10840,"星星",6512,182.578,3,"这个名字有多适合这个图片？?",7,"VCS_340.png",1,"trial_lists/trial_list_1"
"jaoZm","请为此图片命名",194.816,12212,"正方形",2261,198.081,4,"这个名字有多适合这个图片？?",8,"square.png",1,"trial_lists/trial_list_1"
"jaoZm","请为此图片命名",210.124,12017,"陶罐",1198,212.327,2,"这个名字有多适合这个图片？?",9,"VCS_190.png",1,"trial_lists/trial_list_1"
"jaoZm","请为此图片命名",221.431,9077,"五角形",2932,225.368,1,"这个名字有多适合这个图片？?",10,"VCS_250.png",1,"trial_lists/trial_list_1"
"jaoZm","请为此图片命名",233.221,7826,"三角形",1245,235.471,4,"这个名字有多适合这个图片？?",11,"triangle.png",1,"trial_lists/trial_list_1"
"jaoZm","请为此图片命名",261.028,25529,"爆米花",1054,263.087,1,"这个名字有多适合这个图片？?",12,"VCS_310.png",1,"trial_lists/trial_list_1"
"jaoZm","请为此图片命名",285.541,22427,"水仙花",1767,288.313,3,"这个名字有多适合这个图片？?",13,"VCS_10.png",1,"trial_lists/trial_list_1"
"jaoZm","请为此图片命名",298.866,10527,"蜂蜜罐",972,300.842,4,"这个名字有多适合这个图片？?",14,"VCS_160.png",1,"trial_lists/trial_list_1"
"jaoZm","请为此图片命名",337.493,36623,"兔子",1718,340.216,2,"这个名字有多适合这个图片？?",15,"VCS_130.png",1,"trial_lists/trial_list_1"
"jc0g7","请为此图片命名",168.775,27923,"类五角星",5913,175.712,4,"这个名字有多适合这个图片？",1,"VCS_240.png",3,"trial_lists/trial_list_3"
"jhBCi","请为此图片命名",353.225,17004,"兔子",15885,370.14,2,"这个名字有多适合这个图片？",1,"VCS_140.png",2,"trial_lists/trial_list_2"
"jhBCi","请为此图片命名",390.267,20099,"飞机",1873,393.153,2,"这个名字有多适合这个图片？",2,"VCS_320.png",2,"trial_lists/trial_list_2"
"jhBCi","请为此图片命名",411.469,18295,"十字路口",4505,416.998,3,"这个名字有多适合这个图片？",3,"VCS_50.png",2,"trial_lists/trial_list_2"
"jhBCi","请为此图片命名",442.895,25874,"脱毛的狼",1661,445.574,3,"这个名字有多适合这个图片？",4,"dog.png",2,"trial_lists/trial_list_2"
"jhBCi","请为此图片命名",476.752,31153,"背面的兔子",1015,478.786,3,"这个名字有多适合这个图片？",5,"VCS_110.png",2,"trial_lists/trial_list_2"
"jhBCi","请为此图片命名",507.795,28977,"长矛",2714,511.521,2,"这个名字有多适合这个图片？",6,"VCS_290.png",2,"trial_lists/trial_list_2"
"jhBCi","请为此图片命名",530.889,19344,"正方形",1691,533.604,3,"这个名字有多适合这个图片？",7,"square.png",2,"trial_lists/trial_list_2"
"jhBCi","请为此图片命名",555.213,21587,"四角星",728,556.957,3,"这个名字有多适合这个图片？",8,"VCS_350.png",2,"trial_lists/trial_list_2"
"jhBCi","请为此图片命名",639.389,82408,"兔耳朵",3659,644.062,1,"这个名字有多适合这个图片？",9,"VCS_80.png",2,"trial_lists/trial_list_2"
"jhBCi","请为此图片命名",687.158,43072,"左右对称的不规则石头",1383,689.554,1,"这个名字有多适合这个图片？",10,"VCS_200.png",2,"trial_lists/trial_list_2"
"jhBCi","请为此图片命名",714.971,25404,"飞镖",1750,717.735,2,"这个名字有多适合这个图片？",11,"VCS_20.png",2,"trial_lists/trial_list_2"
"jhBCi","请为此图片命名",731.08,13321,"等腰三角形",2511,734.605,3,"这个名字有多适合这个图片？",12,"triangle.png",2,"trial_lists/trial_list_2"
"jhBCi","请为此图片命名",758.792,24164,"左右对称的几何图形",746,760.551,1,"这个名字有多适合这个图片？",13,"VCS_260.png",2,"trial_lists/trial_list_2"
"jhBCi","请为此图片命名",807.566,46992,"左右对称的弧形几何图",1701,810.287,1,"这个名字有多适合这个图片？",14,"VCS_170.png",2,"trial_lists/trial_list_2"
"jhBCi","请为此图片命名",848.492,38185,"上尖下方的几何图形",4029,853.531,2,"这个名字有多适合这个图片？",15,"VCS_230.png",2,"trial_lists/trial_list_2"
"JYa3P","请为此图片命名",43.91,39612,"稳星",8417,53.373,2,"这个名字有多适合这个图片？",1,"VCS_260.png",2,"trial_lists/trial_list_2"
"JYa3P","请为此图片命名",65.206,11776,"小尖",7426,73.679,3,"这个名字有多适合这个图片？",2,"VCS_290.png",2,"trial_lists/trial_list_2"
"JYa3P","请为此图片命名",101.872,28156,"罐",2447,105.362,3,"这个名字有多适合这个图片？",3,"VCS_140.png",2,"trial_lists/trial_list_2"
"JYa3P","请为此图片命名",131.628,26229,"狼",3203,135.879,3,"这个名字有多适合这个图片？",4,"dog.png",2,"trial_lists/trial_list_2"
"JYa3P","请为此图片命名",206.512,42115,"胖罐",9705,217.261,2,"这个名字有多适合这个图片？",6,"VCS_170.png",2,"trial_lists/trial_list_2"
"JYa3P","请为此图片命名",234.707,17403,"软罐",14587,250.34,2,"这个名字有多适合这个图片？",7,"VCS_110.png",2,"trial_lists/trial_list_2"
"JYa3P","请为此图片命名",267.935,17555,"空白",7156,276.126,2,"这个名字有多适合这个图片？",8,"VCS_80.png",2,"trial_lists/trial_list_2"
"JYa3P","请为此图片命名",339.66,63495,"企鹅",2443,343.137,3,"这个名字有多适合这个图片？",9,"VCS_320.png",2,"trial_lists/trial_list_2"
"JYa3P","请为此图片命名",364.766,21598,"仓",1276,367.082,3,"这个名字有多适合这个图片？",10,"VCS_200.png",2,"trial_lists/trial_list_2"
"JYa3P","请为此图片命名",385.887,18762,"空白",1347,388.271,3,"这个名字有多适合这个图片？",11,"square.png",2,"trial_lists/trial_list_2"
"JYa3P","请为此图片命名",408.389,20077,"陀螺",1446,410.875,3,"这个名字有多适合这个图片？",12,"VCS_50.png",2,"trial_lists/trial_list_2"
"JYa3P","请为此图片命名",422.63,11728,"陀螺",1321,424.975,3,"这个名字有多适合这个图片？",13,"VCS_20.png",2,"trial_lists/trial_list_2"
"JYa3P","请为此图片命名",432.168,7168,"三角",1082,434.287,3,"这个名字有多适合这个图片？",14,"triangle.png",2,"trial_lists/trial_list_2"
"JYa3P","请为此图片命名",458.939,24614,"皇冠",970,460.957,4,"这个名字有多适合这个图片？",15,"VCS_230.png",2,"trial_lists/trial_list_2"
"JYihb","请为此图片命名",38.112,18027,"4角星",9647,48.807,3,"这个名字有多适合这个图片？?",1,"VCS_10.png",1,"trial_lists/trial_list_1"
"JYihb","请为此图片命名",70.769,21928,"三角多边形",2114,73.917,2,"这个名字有多适合这个图片？?",2,"VCS_250.png",1,"trial_lists/trial_list_1"
"JYihb","请为此图片命名",99.653,25701,"半身毛狗",1810,102.493,2,"这个名字有多适合这个图片？?",3,"dog.png",1,"trial_lists/trial_list_1"
"JYihb","请为此图片命名",111.808,9280,"坎肩",1503,114.343,3,"这个名字有多适合这个图片？?",4,"VCS_190.png",1,"trial_lists/trial_list_1"
"JYihb","请为此图片命名",144.546,30167,"三角多边形",861,146.431,2,"这个名字有多适合这个图片？?",5,"VCS_220.png",1,"trial_lists/trial_list_1"
"JYihb","请为此图片命名",175.69,29220,"菱形筒",891,177.609,2,"这个名字有多适合这个图片？?",6,"VCS_310.png",1,"trial_lists/trial_list_1"
"JYihb","请为此图片命名",188.731,11088,"菱形",1536,191.302,3,"这个名字有多适合这个图片？?",7,"VCS_340.png",1,"trial_lists/trial_list_1"
"JYihb","请为此图片命名",202.003,10670,"围嘴",1352,204.386,2,"这个名字有多适合这个图片？?",8,"VCS_100.png",1,"trial_lists/trial_list_1"
"JYihb","请为此图片命名",212.496,8070,"长方形",2289,215.817,3,"这个名字有多适合这个图片？?",9,"square.png",1,"trial_lists/trial_list_1"
"JYihb","请为此图片命名",236.821,20969,"骨头型",2543,240.396,1,"这个名字有多适合这个图片？?",10,"VCS_40.png",1,"trial_lists/trial_list_1"
"JYihb","请为此图片命名",252.667,12237,"橡皮泥",858,254.551,1,"这个名字有多适合这个图片？?",11,"VCS_70.png",1,"trial_lists/trial_list_1"
"JYihb","请为此图片命名",262.948,8368,"三角形",868,264.85,4,"这个名字有多适合这个图片？?",12,"triangle.png",1,"trial_lists/trial_list_1"
"JYihb","请为此图片命名",274.789,9911,"三角多边形",893,276.712,3,"这个名字有多适合这个图片？?",13,"VCS_280.png",1,"trial_lists/trial_list_1"
"JYihb","请为此图片命名",283.825,7075,"坎肩",833,285.684,1,"这个名字有多适合这个图片？?",14,"VCS_160.png",1,"trial_lists/trial_list_1"
"JYihb","请为此图片命名",291.965,6261,"围嘴",694,293.685,2,"这个名字有多适合这个图片？?",15,"VCS_130.png",1,"trial_lists/trial_list_1"
"kdxMD","请为此图片命名",55.768,24208,"丑狗",11946,68.722,4,"这个名字有多适合这个图片？",2,"dog.png",3,"trial_lists/trial_list_3"
"kdxMD","请为此图片命名",78.203,9458,"五角形",1941,81.153,4,"这个名字有多适合这个图片？",3,"VCS_210.png",3,"trial_lists/trial_list_3"
"kdxMD","请为此图片命名",106.667,25492,"一滩水",2316,109.992,4,"这个名字有多适合这个图片？",4,"VCS_150.png",3,"trial_lists/trial_list_3"
"kdxMD","请为此图片命名",137.691,27674,"尖塔",1656,140.358,4,"这个名字有多适合这个图片？",5,"triangle.png",3,"trial_lists/trial_list_3"
"kdxMD","请为此图片命名",398.925,81724,"葫芦",1230,401.173,4,"这个名字有多适合这个图片？",9,"VCS_90.png",3,"trial_lists/trial_list_3"
"kdxMD","请为此图片命名",414.344,13145,"五角星",1303,416.656,4,"这个名字有多适合这个图片？",10,"VCS_240.png",3,"trial_lists/trial_list_3"
"kdxMD","请为此图片命名",422.13,5449,"海星",1211,424.35,4,"这个名字有多适合这个图片？",11,"VCS_360.png",3,"trial_lists/trial_list_3"
"kdxMD","请为此图片命名",435.916,11542,"尿布",1224,438.15,4,"这个名字有多适合这个图片？",12,"VCS_120.png",3,"trial_lists/trial_list_3"
"kdxMD","请为此图片命名",469.817,31643,"操场",1468,472.294,4,"这个名字有多适合这个图片？",13,"square.png",3,"trial_lists/trial_list_3"
"kdxMD","请为此图片命名",489.768,17448,"围嘴",1216,491.995,4,"这个名字有多适合这个图片？",14,"VCS_30.png",3,"trial_lists/trial_list_3"
"kdxMD","请为此图片命名",498.246,6224,"星星",1259,500.515,4,"这个名字有多适合这个图片？",15,"VCS_270.png",3,"trial_lists/trial_list_3"
"KEdsy","请为此图片命名",86.556,52266,"底边直正五边形",10328,97.915,2,"这个名字有多适合这个图片？?",1,"VCS_220.png",1,"trial_lists/trial_list_1"
"KEdsy","请为此图片命名",137.455,39508,"圆滑四角星",2116,140.591,2,"这个名字有多适合这个图片？?",2,"VCS_40.png",1,"trial_lists/trial_list_1"
"KEdsy","请为此图片命名",216.424,75808,"两个直角三个60度角五角星",1144,218.581,2,"这个名字有多适合这个图片？?",3,"VCS_250.png",1,"trial_lists/trial_list_1"
"KEdsy","请为此图片命名",313.459,94866,"左右鼓出的下门牙",1052,315.528,2,"这个名字有多适合这个图片？?",4,"VCS_160.png",1,"trial_lists/trial_list_1"
"KEdsy","请为此图片命名",370.443,54902,"下面角凸出的四角星",1123,372.581,2,"这个名字有多适合这个图片？?",5,"VCS_340.png",1,"trial_lists/trial_list_1"
"KEdsy","请为此图片命名",432.776,60175,"左右鼓出90度包的下门牙",993,434.79,2,"这个名字有多适合这个图片？?",6,"VCS_130.png",1,"trial_lists/trial_list_1"
"KEdsy","请为此图片命名",522.463,87645,"不好描述，和警徽一样的形状",2316,525.789,1,"这个名字有多适合这个图片？?",7,"VCS_190.png",1,"trial_lists/trial_list_1"
"KEdsy","请为此图片命名",579.029,53221,"圆滑四角星，下面两个角之间近似直线",1301,581.345,2,"这个名字有多适合这个图片？?",8,"VCS_70.png",1,"trial_lists/trial_list_1"
"KEdsy","请为此图片命名",642.426,61053,"两个角直角，三个角60度的五角星",1654,645.102,2,"这个名字有多适合这个图片？?",9,"VCS_280.png",1,"trial_lists/trial_list_1"
"KEdsy","请为此图片命名",738.516,93391,"下面角被削掉两刀的四角星",791,740.324,1,"这个名字有多适合这个图片？?",10,"VCS_310.png",1,"trial_lists/trial_list_1"
"KEdsy","请为此图片命名",773.521,33163,"一个30度角两个75度角",7732,782.271,2,"这个名字有多适合这个图片？?",11,"triangle.png",1,"trial_lists/trial_list_1"
"KEdsy","请为此图片命名",854.684,72384,"上身和前腿画了毛的狼狗",1998,857.7,2,"这个名字有多适合这个图片？?",12,"dog.png",1,"trial_lists/trial_list_1"
"KEdsy","请为此图片命名",894.741,37012,"边长6厘米正方形",1374,897.134,2,"这个名字有多适合这个图片？?",13,"square.png",1,"trial_lists/trial_list_1"
"KEdsy","请为此图片命名",940.474,43315,"右斜放30度圆滑四角星",1281,942.772,2,"这个名字有多适合这个图片？?",14,"VCS_10.png",1,"trial_lists/trial_list_1"
"KEdsy","请为此图片命名",1023.003,80205,"小女孩小连衣裙",1670,1025.689,2,"这个名字有多适合这个图片？?",15,"VCS_100.png",1,"trial_lists/trial_list_1"
"l0gTi","请为此图片命名",18.285,7978,"牙",8391,27.716,3,"这个名字有多适合这个图片？?",1,"VCS_160.png",1,"trial_lists/trial_list_1"
"l0gTi","请为此图片命名",36.164,8406,"身材",3216,40.411,3,"这个名字有多适合这个图片？?",2,"VCS_130.png",1,"trial_lists/trial_list_1"
"l0gTi","请为此图片命名",51.06,10621,"五边形",1172,53.273,4,"这个名字有多适合这个图片？?",3,"VCS_220.png",1,"trial_lists/trial_list_1"
"l0gTi","请为此图片命名",71.151,17842,"冰箱贴",1724,73.903,2,"这个名字有多适合这个图片？?",4,"VCS_40.png",1,"trial_lists/trial_list_1"
"l0gTi","请为此图片命名",84.348,10409,"白纸",1767,87.14,3,"这个名字有多适合这个图片？?",5,"square.png",1,"trial_lists/trial_list_1"
"l0gTi","请为此图片命名",95.848,8673,"飞镖",1138,98.019,3,"这个名字有多适合这个图片？?",6,"VCS_340.png",1,"trial_lists/trial_list_1"
"l0gTi","请为此图片命名",117.717,19663,"折纸",1338,120.085,2,"这个名字有多适合这个图片？?",7,"VCS_250.png",1,"trial_lists/trial_list_1"
"l0gTi","请为此图片命名",141.753,11365,"交通标志",1027,143.8,3,"这个名字有多适合这个图片？?",9,"triangle.png",1,"trial_lists/trial_list_1"
"l0gTi","请为此图片命名",159.534,15699,"胶泥",1425,161.981,2,"这个名字有多适合这个图片？?",10,"VCS_70.png",1,"trial_lists/trial_list_1"
"l0gTi","请为此图片命名",126.052,5937,"盾牌",3283,130.359,3,"这个名字有多适合这个图片？?",8,"VCS_190.png",1,"trial_lists/trial_list_1"
"l0gTi","请为此图片命名",204.87,42864,"人",2574,208.471,2,"这个名字有多适合这个图片？?",11,"VCS_280.png",1,"trial_lists/trial_list_1"
"l0gTi","请为此图片命名",213.598,5098,"飞镖",934,215.56,2,"这个名字有多适合这个图片？?",12,"VCS_10.png",1,"trial_lists/trial_list_1"
"l0gTi","请为此图片命名",225.504,9917,"狗",1004,227.531,4,"这个名字有多适合这个图片？?",13,"dog.png",1,"trial_lists/trial_list_1"
"l0gTi","请为此图片命名",261.484,33925,"张开双臂的人",1554,264.069,3,"这个名字有多适合这个图片？?",14,"VCS_310.png",1,"trial_lists/trial_list_1"
"l0gTi","请为此图片命名",282.256,18149,"绳子",984,284.271,3,"这个名字有多适合这个图片？?",15,"VCS_100.png",1,"trial_lists/trial_list_1"
"Loihy","请为此图片命名",55.448,12274,"泳衣",15110,71.572,3,"这个名字有多适合这个图片？?",1,"VCS_130.png",1,"trial_lists/trial_list_1"
"Loihy","请为此图片命名",78.959,7372,"山峰",7677,87.64,3,"这个名字有多适合这个图片？?",2,"triangle.png",1,"trial_lists/trial_list_1"
"Loihy","请为此图片命名",101.211,13554,"坛子",4236,106.451,2,"这个名字有多适合这个图片？?",3,"VCS_160.png",1,"trial_lists/trial_list_1"
"Loihy","请为此图片命名",121.808,15341,"徽章",2309,125.12,2,"这个名字有多适合这个图片？?",4,"VCS_220.png",1,"trial_lists/trial_list_1"
"Loihy","请为此图片命名",136.647,11510,"蜜罐",2949,140.6,2,"这个名字有多适合这个图片？?",5,"VCS_190.png",1,"trial_lists/trial_list_1"
"Loihy","请为此图片命名",148.566,7950,"五星",2212,151.782,3,"这个名字有多适合这个图片？?",6,"VCS_250.png",1,"trial_lists/trial_list_1"
"Loihy","请为此图片命名",182.524,30726,"车标",1388,184.917,2,"这个名字有多适合这个图片？?",7,"VCS_310.png",1,"trial_lists/trial_list_1"
"Loihy","请为此图片命名",199.295,14361,"螺丝",1863,202.167,3,"这个名字有多适合这个图片？?",8,"VCS_40.png",1,"trial_lists/trial_list_1"
"Loihy","请为此图片命名",214.662,12480,"五星",2743,218.411,3,"这个名字有多适合这个图片？?",9,"VCS_280.png",1,"trial_lists/trial_list_1"
"Loihy","请为此图片命名",230.883,12452,"柴犬",2154,234.042,3,"这个名字有多适合这个图片？?",10,"dog.png",1,"trial_lists/trial_list_1"
"Loihy","请为此图片命名",241.647,7588,"无题",13749,256.401,3,"这个名字有多适合这个图片？?",11,"square.png",1,"trial_lists/trial_list_1"
"Loihy","请为此图片命名",274.41,17991,"兔头",4617,280.031,2,"这个名字有多适合这个图片？?",12,"VCS_100.png",1,"trial_lists/trial_list_1"
"Loihy","请为此图片命名",286.941,6895,"飞镖",1622,289.568,4,"这个名字有多适合这个图片？?",13,"VCS_10.png",1,"trial_lists/trial_list_1"
"Loihy","请为此图片命名",309.818,20235,"飞镖",4396,315.219,4,"这个名字有多适合这个图片？?",14,"VCS_340.png",1,"trial_lists/trial_list_1"
"Loihy","请为此图片命名",359.937,44702,"粘液",3456,364.398,2,"这个名字有多适合这个图片？?",15,"VCS_70.png",1,"trial_lists/trial_list_1"
"LtjSN","请为此图片命名",41.976,14326,"凝视",8368,51.359,4,"这个名字有多适合这个图片？?",1,"dog.png",1,"trial_lists/trial_list_1"
"LtjSN","请为此图片命名",95.721,44352,"飞",3482,100.212,3,"这个名字有多适合这个图片？?",2,"VCS_10.png",1,"trial_lists/trial_list_1"
"LtjSN","请为此图片命名",108.72,8499,"饼干",4957,114.686,3,"这个名字有多适合这个图片？?",3,"VCS_70.png",1,"trial_lists/trial_list_1"
"LtjSN","请为此图片命名",145.344,30648,"星星屋",1735,148.088,4,"这个名字有多适合这个图片？?",4,"VCS_280.png",1,"trial_lists/trial_list_1"
"LtjSN","请为此图片命名",185.721,37625,"飞镖",1121,187.85,3,"这个名字有多适合这个图片？?",5,"VCS_40.png",1,"trial_lists/trial_list_1"
"LtjSN","请为此图片命名",202.464,14605,"对称",1079,204.552,3,"这个名字有多适合这个图片？?",6,"VCS_190.png",1,"trial_lists/trial_list_1"
"LtjSN","请为此图片命名",219.289,14726,"飞碟",957,221.256,3,"这个名字有多适合这个图片？?",7,"VCS_340.png",1,"trial_lists/trial_list_1"
"LtjSN","请为此图片命名",233.18,11903,"锐",945,235.134,3,"这个名字有多适合这个图片？?",8,"triangle.png",1,"trial_lists/trial_list_1"
"LtjSN","请为此图片命名",245.923,10775,"稳定",987,247.921,3,"这个名字有多适合这个图片？?",9,"square.png",1,"trial_lists/trial_list_1"
"LtjSN","请为此图片命名",272.843,24898,"巫婆帽",905,274.757,3,"这个名字有多适合这个图片？?",10,"VCS_310.png",1,"trial_lists/trial_list_1"
"LtjSN","请为此图片命名",280.02,5255,"背心",821,281.849,3,"这个名字有多适合这个图片？?",11,"VCS_130.png",1,"trial_lists/trial_list_1"
"LtjSN","请为此图片命名",292.035,10177,"花瓶",838,293.882,3,"这个名字有多适合这个图片？?",12,"VCS_160.png",1,"trial_lists/trial_list_1"
"LtjSN","请为此图片命名",302.919,9025,"皇冠",1643,305.57,4,"这个名字有多适合这个图片？?",13,"VCS_250.png",1,"trial_lists/trial_list_1"
"LtjSN","请为此图片命名",311.59,6009,"裙子",1373,313.973,4,"这个名字有多适合这个图片？?",14,"VCS_100.png",1,"trial_lists/trial_list_1"
"LtjSN","请为此图片命名",347.484,33489,"厨师帽",1082,349.575,4,"这个名字有多适合这个图片？?",15,"VCS_220.png",1,"trial_lists/trial_list_1"
"lyN2d","请为此图片命名",43.22,30483,"连衣裙",5982,50.222,2,"这个名字有多适合这个图片？",1,"VCS_90.png",3,"trial_lists/trial_list_3"
"lyN2d","请为此图片命名",103.142,52892,"光屁股狗",1689,105.839,2,"这个名字有多适合这个图片？",2,"dog.png",3,"trial_lists/trial_list_3"
"lyN2d","请为此图片命名",135.676,29811,"跑车引擎盖",1540,138.222,2,"这个名字有多适合这个图片？",3,"VCS_180.png",3,"trial_lists/trial_list_3"
"lyN2d","请为此图片命名",149.195,10945,"平底五角星",1701,151.902,3,"这个名字有多适合这个图片？",4,"VCS_270.png",3,"trial_lists/trial_list_3"
"lyN2d","请为此图片命名",185.347,33417,"跪坐举手的无头人",1288,187.641,2,"这个名字有多适合这个图片？",5,"VCS_60.png",3,"trial_lists/trial_list_3"
"lyN2d","请为此图片命名",228.246,40579,"较钝的平底五角星",1804,231.058,2,"这个名字有多适合这个图片？",6,"VCS_240.png",3,"trial_lists/trial_list_3"
"lyN2d","请为此图片命名",245.16,14083,"宽腰五角星",1551,247.718,2,"这个名字有多适合这个图片？",7,"VCS_210.png",3,"trial_lists/trial_list_3"
"lyN2d","请为此图片命名",302.894,55148,"饮水机水桶轮廓",1653,305.553,2,"这个名字有多适合这个图片？",8,"VCS_150.png",3,"trial_lists/trial_list_3"
"lyN2d","请为此图片命名",325.89,20310,"钝底十字星",1660,328.558,2,"这个名字有多适合这个图片？",9,"VCS_330.png",3,"trial_lists/trial_list_3"
"lyN2d","请为此图片命名",394.17,65585,"钝多边形底的圆角x",1681,396.857,2,"这个名字有多适合这个图片？",10,"VCS_120.png",3,"trial_lists/trial_list_3"
"lyN2d","请为此图片命名",429.537,32662,"略顺时针偏转的十字星",2359,432.901,2,"这个名字有多适合这个图片？",11,"VCS_360.png",3,"trial_lists/trial_list_3"
"lyN2d","请为此图片命名",497.516,64587,"底角70度左右的等腰三角形",1651,500.174,2,"这个名字有多适合这个图片？",12,"triangle.png",3,"trial_lists/trial_list_3"
"lyN2d","请为此图片命名",545.386,45184,"稍逆时针旋转了的圆角x",1551,547.942,2,"这个名字有多适合这个图片？",13,"VCS_30.png",3,"trial_lists/trial_list_3"
"lyN2d","请为此图片命名",582.935,34966,"与屏接近同宽的正方形",1552,585.492,2,"这个名字有多适合这个图片？",14,"square.png",3,"trial_lists/trial_list_3"
"lyN2d","请为此图片命名",600.588,15069,"钝底的尖锐五角星",1366,602.961,2,"这个名字有多适合这个图片？",15,"VCS_300.png",3,"trial_lists/trial_list_3"
"M0oN2","请为此图片命名",57.016,25306,"女士泳衣",3809,61.838,3,"这个名字有多适合这个图片？?",1,"VCS_100.png",1,"trial_lists/trial_list_1"
"M0oN2","请为此图片命名",83.003,21143,"平底五角星",2044,86.053,2,"这个名字有多适合这个图片？?",2,"VCS_250.png",1,"trial_lists/trial_list_1"
"M0oN2","请为此图片命名",114.133,28052,"盾牌徽章",1094,116.233,2,"这个名字有多适合这个图片？?",3,"VCS_190.png",1,"trial_lists/trial_list_1"
"M0oN2","请为此图片命名",130.253,13994,"梨形身材",5725,136.983,1,"这个名字有多适合这个图片？?",4,"VCS_160.png",1,"trial_lists/trial_list_1"
"M0oN2","请为此图片命名",150.222,13203,"四角星",2591,153.818,2,"这个名字有多适合这个图片？?",5,"VCS_340.png",1,"trial_lists/trial_list_1"
"M0oN2","请为此图片命名",175.544,21703,"平底五角星",2235,178.784,2,"这个名字有多适合这个图片？?",6,"VCS_280.png",1,"trial_lists/trial_list_1"
"M0oN2","请为此图片命名",198.663,19851,"类五边形",3111,202.779,1,"这个名字有多适合这个图片？?",7,"VCS_220.png",1,"trial_lists/trial_list_1"
"M0oN2","请为此图片命名",210.108,7301,"等腰三角形",2712,213.825,4,"这个名字有多适合这个图片？?",8,"triangle.png",1,"trial_lists/trial_list_1"
"M0oN2","请为此图片命名",228.124,14271,"补丁",2671,231.801,1,"这个名字有多适合这个图片？?",9,"VCS_40.png",1,"trial_lists/trial_list_1"
"M0oN2","请为此图片命名",237.36,5532,"狗",1414,239.781,3,"这个名字有多适合这个图片？?",10,"dog.png",1,"trial_lists/trial_list_1"
"M0oN2","请为此图片命名",254.238,14430,"梨形身材",1097,256.341,1,"这个名字有多适合这个图片？?",11,"VCS_130.png",1,"trial_lists/trial_list_1"
"M0oN2","请为此图片命名",272.503,16131,"缺角五角星",1245,274.755,1,"这个名字有多适合这个图片？?",12,"VCS_310.png",1,"trial_lists/trial_list_1"
"M0oN2","请为此图片命名",286.517,11736,"死角星",6324,293.847,2,"这个名字有多适合这个图片？?",13,"VCS_10.png",1,"trial_lists/trial_list_1"
"M0oN2","请为此图片命名",303.842,9968,"尿布",3790,308.638,2,"这个名字有多适合这个图片？?",14,"VCS_70.png",1,"trial_lists/trial_list_1"
"M0oN2","请为此图片命名",320.345,11679,"矩形",2059,323.408,3,"这个名字有多适合这个图片？?",15,"square.png",1,"trial_lists/trial_list_1"
"MCrnz","请为此图片命名",23.653,9026,"平底五角星",8537,33.216,2,"这个名字有多适合这个图片？",1,"VCS_260.png",2,"trial_lists/trial_list_2"
"MCrnz","请为此图片命名",42.123,8835,"维尼脸",2372,45.51,3,"这个名字有多适合这个图片？",2,"VCS_170.png",2,"trial_lists/trial_list_2"
"MCrnz","请为此图片命名",64.902,19362,"超梦的脸",1342,67.262,2,"这个名字有多适合这个图片？",3,"VCS_140.png",2,"trial_lists/trial_list_2"
"MCrnz","请为此图片命名",80.909,13615,"圆角十字",1422,83.345,3,"这个名字有多适合这个图片？",4,"VCS_50.png",2,"trial_lists/trial_list_2"
"MCrnz","请为此图片命名",120.536,37164,"凸脸兔子",958,122.526,1,"这个名字有多适合这个图片？",5,"VCS_80.png",2,"trial_lists/trial_list_2"
"MCrnz","请为此图片命名",138.69,16132,"等腰三角形",2192,141.9,4,"这个名字有多适合这个图片？",6,"triangle.png",2,"trial_lists/trial_list_2"
"MCrnz","请为此图片命名",168.31,26378,"奥特之星",1342,170.669,2,"这个名字有多适合这个图片？",7,"VCS_20.png",2,"trial_lists/trial_list_2"
"MCrnz","请为此图片命名",178.128,7426,"四角星",771,179.922,3,"这个名字有多适合这个图片？",8,"VCS_350.png",2,"trial_lists/trial_list_2"
"MCrnz","请为此图片命名",202.561,22602,"后半秃犬",1486,205.062,3,"这个名字有多适合这个图片？",9,"dog.png",2,"trial_lists/trial_list_2"
"MCrnz","请为此图片命名",218.127,13038,"凸脸兔子",885,220.027,1,"这个名字有多适合这个图片？",10,"VCS_110.png",2,"trial_lists/trial_list_2"
"MCrnz","请为此图片命名",242.312,22239,"四边形底四角星",1032,244.358,1,"这个名字有多适合这个图片？",11,"VCS_320.png",2,"trial_lists/trial_list_2"
"MCrnz","请为此图片命名",261.231,16840,"胖平底五角星",1240,263.492,2,"这个名字有多适合这个图片？",12,"VCS_230.png",2,"trial_lists/trial_list_2"
"MCrnz","请为此图片命名",281.97,18438,"弯边盾牌",882,283.873,1,"这个名字有多适合这个图片？",13,"VCS_200.png",2,"trial_lists/trial_list_2"
"MCrnz","请为此图片命名",293.091,9184,"平底五角星",1175,295.289,2,"这个名字有多适合这个图片？",14,"VCS_290.png",2,"trial_lists/trial_list_2"
"MCrnz","请为此图片命名",303.181,7851,"正方形",943,305.148,4,"这个名字有多适合这个图片？",15,"square.png",2,"trial_lists/trial_list_2"
"MfUhC","请为此图片命名",112.546,31556,"十字星",11711,125.272,4,"这个名字有多适合这个图片？",1,"VCS_20.png",2,"trial_lists/trial_list_2"
"MfUhC","请为此图片命名",148.463,23168,"星型桩",2581,152.052,3,"这个名字有多适合这个图片？",2,"VCS_290.png",2,"trial_lists/trial_list_2"
"MfUhC","请为此图片命名",175.664,23594,"类五边形",2553,179.225,3,"这个名字有多适合这个图片？",3,"VCS_230.png",2,"trial_lists/trial_list_2"
"MfUhC","请为此图片命名",284.704,105459,"类幽灵",4019,289.731,2,"这个名字有多适合这个图片？",4,"VCS_50.png",2,"trial_lists/trial_list_2"
"MfUhC","请为此图片命名",302.974,13220,"十字镖",3216,307.198,4,"这个名字有多适合这个图片？",5,"VCS_350.png",2,"trial_lists/trial_list_2"
"MfUhC","请为此图片命名",326.424,19202,"缸状物",4099,331.531,2,"这个名字有多适合这个图片？",6,"VCS_170.png",2,"trial_lists/trial_list_2"
"MfUhC","请为此图片命名",375.375,43823,"粮仓形",1882,378.269,2,"这个名字有多适合这个图片？",7,"VCS_200.png",2,"trial_lists/trial_list_2"
"MfUhC","请为此图片命名",407.592,29298,"软胶体",1420,410.018,1,"这个名字有多适合这个图片？",8,"VCS_80.png",2,"trial_lists/trial_list_2"
"MfUhC","请为此图片命名",426.629,16589,"狗",2016,429.653,4,"这个名字有多适合这个图片？",9,"dog.png",2,"trial_lists/trial_list_2"
"MfUhC","请为此图片命名",447.08,17404,"长三角形",2052,450.14,4,"这个名字有多适合这个图片？",10,"triangle.png",2,"trial_lists/trial_list_2"
"MfUhC","请为此图片命名",469.558,19394,"护臂盾",2369,472.94,2,"这个名字有多适合这个图片？",11,"VCS_140.png",2,"trial_lists/trial_list_2"
"MfUhC","请为此图片命名",485.533,12567,"星形树",1884,488.426,2,"这个名字有多适合这个图片？",12,"VCS_260.png",2,"trial_lists/trial_list_2"
"MfUhC","请为此图片命名",497.509,9058,"正方形",2807,501.324,4,"这个名字有多适合这个图片？",13,"square.png",2,"trial_lists/trial_list_2"
"MfUhC","请为此图片命名",517.834,16487,"星形锥",1951,520.791,2,"这个名字有多适合这个图片？",14,"VCS_320.png",2,"trial_lists/trial_list_2"
"MfUhC","请为此图片命名",573.537,52722,"类支架",1352,575.897,1,"这个名字有多适合这个图片？",15,"VCS_110.png",2,"trial_lists/trial_list_2"
"MpfaT","请为此图片命名",44.695,12178,"三角形",24935,70.644,4,"这个名字有多适合这个图片？?",1,"triangle.png",1,"trial_lists/trial_list_1"
"MpfaT","请为此图片命名",81.787,11133,"四角星",1058,83.855,4,"这个名字有多适合这个图片？?",2,"VCS_10.png",1,"trial_lists/trial_list_1"
"MpfaT","请为此图片命名",161.036,77169,"铜锅炉",4647,166.692,3,"这个名字有多适合这个图片？?",3,"VCS_280.png",1,"trial_lists/trial_list_1"
"MpfaT","请为此图片命名",194.891,28190,"三角帽",1222,197.124,3,"这个名字有多适合这个图片？?",4,"VCS_250.png",1,"trial_lists/trial_list_1"
"MpfaT","请为此图片命名",216.989,19840,"猫头",4745,222.742,3,"这个名字有多适合这个图片？?",5,"VCS_130.png",1,"trial_lists/trial_list_1"
"MpfaT","请为此图片命名",234.749,11997,"狗",1401,237.16,3,"这个名字有多适合这个图片？?",6,"dog.png",1,"trial_lists/trial_list_1"
"MpfaT","请为此图片命名",260.83,23662,"乘号",1288,263.128,3,"这个名字有多适合这个图片？?",7,"VCS_40.png",1,"trial_lists/trial_list_1"
"MpfaT","请为此图片命名",270.47,7333,"四角星",1508,272.987,3,"这个名字有多适合这个图片？?",8,"VCS_340.png",1,"trial_lists/trial_list_1"
"MpfaT","请为此图片命名",289.862,16867,"谷堆",3059,293.93,3,"这个名字有多适合这个图片？?",9,"VCS_220.png",1,"trial_lists/trial_list_1"
"MpfaT","请为此图片命名",339.501,45561,"坐垫",1587,342.097,2,"这个名字有多适合这个图片？?",10,"VCS_70.png",1,"trial_lists/trial_list_1"
"MpfaT","请为此图片命名",363.22,21115,"A5纸",5202,369.432,3,"这个名字有多适合这个图片？?",11,"square.png",1,"trial_lists/trial_list_1"
"MpfaT","请为此图片命名",384.486,15045,"裙子",1441,386.939,3,"这个名字有多适合这个图片？?",12,"VCS_100.png",1,"trial_lists/trial_list_1"
"MpfaT","请为此图片命名",407.384,20422,"罐子",2910,411.303,3,"这个名字有多适合这个图片？?",13,"VCS_190.png",1,"trial_lists/trial_list_1"
"MpfaT","请为此图片命名",426.044,14732,"星星",1117,428.169,3,"这个名字有多适合这个图片？?",14,"VCS_310.png",1,"trial_lists/trial_list_1"
"MpfaT","请为此图片命名",439.121,10943,"罐子",881,441.013,3,"这个名字有多适合这个图片？?",15,"VCS_160.png",1,"trial_lists/trial_list_1"
"Mpyw5","请为此图片命名",30.222,21084,"平衡五角星",29367,60.613,3,"这个名字有多适合这个图片？",1,"VCS_240.png",3,"trial_lists/trial_list_3"
"Mpyw5","请为此图片命名",95.743,35088,"撞坏的咸菜缸",3453,100.205,2,"这个名字有多适合这个图片？",2,"VCS_180.png",3,"trial_lists/trial_list_3"
"Mpyw5","请为此图片命名",106.661,6424,"飞镖",1616,109.286,4,"这个名字有多适合这个图片？",3,"VCS_30.png",3,"trial_lists/trial_list_3"
"Mpyw5","请为此图片命名",139.029,29710,"创可贴",2829,142.865,1,"这个名字有多适合这个图片？",4,"VCS_60.png",3,"trial_lists/trial_list_3"
"Mpyw5","请为此图片命名",148.886,5988,"背心",3605,153.496,3,"这个名字有多适合这个图片？",5,"VCS_120.png",3,"trial_lists/trial_list_3"
"Mpyw5","请为此图片命名",162.146,8616,"女士背心",3425,166.58,2,"这个名字有多适合这个图片？",6,"VCS_90.png",3,"trial_lists/trial_list_3"
"Mpyw5","请为此图片命名",185.418,18801,"正在剃毛的狗",4390,190.816,4,"这个名字有多适合这个图片？",7,"dog.png",3,"trial_lists/trial_list_3"
"Mpyw5","请为此图片命名",223.131,32283,"谷仓",1246,225.382,2,"这个名字有多适合这个图片？",8,"VCS_270.png",3,"trial_lists/trial_list_3"
"Mpyw5","请为此图片命名",236.795,11379,"肥胖的背心",2199,240.002,3,"这个名字有多适合这个图片？",9,"VCS_150.png",3,"trial_lists/trial_list_3"
"Mpyw5","请为此图片命名",257.506,17472,"锐利的飞镖",3616,262.13,2,"这个名字有多适合这个图片？",10,"VCS_330.png",3,"trial_lists/trial_list_3"
"Mpyw5","请为此图片命名",269.666,7501,"死胖子",1693,272.367,4,"这个名字有多适合这个图片？",11,"VCS_210.png",3,"trial_lists/trial_list_3"
"Mpyw5","请为此图片命名",277.499,5093,"海星",1664,280.171,1,"这个名字有多适合这个图片？",12,"VCS_360.png",3,"trial_lists/trial_list_3"
"Mpyw5","请为此图片命名",394.21,114006,"三角形",2346,397.565,4,"这个名字有多适合这个图片？",13,"triangle.png",3,"trial_lists/trial_list_3"
"Mpyw5","请为此图片命名",423.461,25864,"正方形",1853,426.323,4,"这个名字有多适合这个图片？",14,"square.png",3,"trial_lists/trial_list_3"
"Mpyw5","请为此图片命名",441.525,15166,"站不住的四边形",3356,445.888,3,"这个名字有多适合这个图片？",15,"VCS_300.png",3,"trial_lists/trial_list_3"
"Ms2Yh","请为此图片命名",125.196,92487,"拒马",4094,130.298,1,"这个名字有多适合这个图片？",2,"VCS_80.png",2,"trial_lists/trial_list_2"
"Ms2Yh","请为此图片命名",153.39,23068,"皇冠",2974,157.368,1,"这个名字有多适合这个图片？",3,"VCS_290.png",2,"trial_lists/trial_list_2"
"Ms2Yh","请为此图片命名",171.68,14295,"瓦罐",1421,174.105,2,"这个名字有多适合这个图片？",4,"VCS_140.png",2,"trial_lists/trial_list_2"
"Ms2Yh","请为此图片命名",184.96,10837,"五边形",1149,187.113,2,"这个名字有多适合这个图片？",5,"VCS_230.png",2,"trial_lists/trial_list_2"
"Ms2Yh","请为此图片命名",196.655,9524,"正方形",1486,199.146,4,"这个名字有多适合这个图片？",6,"square.png",2,"trial_lists/trial_list_2"
"Ms2Yh","请为此图片命名",219.995,20832,"不规则图形",2995,223.993,1,"这个名字有多适合这个图片？",7,"VCS_200.png",2,"trial_lists/trial_list_2"
"Ms2Yh","请为此图片命名",233.046,9034,"狗",2392,236.443,2,"这个名字有多适合这个图片？",8,"dog.png",2,"trial_lists/trial_list_2"
"Ms2Yh","请为此图片命名",242.195,5736,"三角形",1524,244.722,4,"这个名字有多适合这个图片？",9,"triangle.png",2,"trial_lists/trial_list_2"
"Ms2Yh","请为此图片命名",250.023,5283,"瓦罐",1892,252.919,1,"这个名字有多适合这个图片？",10,"VCS_170.png",2,"trial_lists/trial_list_2"
"Ms2Yh","请为此图片命名",282.031,29094,"不知道",1090,284.126,1,"这个名字有多适合这个图片？",11,"VCS_110.png",2,"trial_lists/trial_list_2"
"Ms2Yh","请为此图片命名",289.575,5433,"皇冠",1148,291.727,1,"这个名字有多适合这个图片？",12,"VCS_260.png",2,"trial_lists/trial_list_2"
"Ms2Yh","请为此图片命名",310.344,18599,"四角星",4641,315.989,2,"这个名字有多适合这个图片？",13,"VCS_350.png",2,"trial_lists/trial_list_2"
"Ms2Yh","请为此图片命名",323.048,7040,"四角星",4160,328.212,1,"这个名字有多适合这个图片？",14,"VCS_20.png",2,"trial_lists/trial_list_2"
"Ms2Yh","请为此图片命名",340.738,12508,"不知道",2442,344.185,1,"这个名字有多适合这个图片？",15,"VCS_320.png",2,"trial_lists/trial_list_2"
"N7f3d","请为此图片命名",33.289,12244,"犬",4764,39.061,3,"这个名字有多适合这个图片？",1,"dog.png",2,"trial_lists/trial_list_2"
"N7f3d","请为此图片命名",63.823,24742,"泥巴",1921,66.748,1,"这个名字有多适合这个图片？",2,"VCS_80.png",2,"trial_lists/trial_list_2"
"N7f3d","请为此图片命名",75.601,8833,"四角星",1802,78.407,2,"这个名字有多适合这个图片？",3,"VCS_50.png",2,"trial_lists/trial_list_2"
"N7f3d","请为此图片命名",94.424,15997,"平底五角星",1520,96.947,2,"这个名字有多适合这个图片？",4,"VCS_260.png",2,"trial_lists/trial_list_2"
"N7f3d","请为此图片命名",111.622,14656,"胸甲形",2621,115.247,2,"这个名字有多适合这个图片？",5,"VCS_140.png",2,"trial_lists/trial_list_2"
"N7f3d","请为此图片命名",129.688,14421,"锐角三角形",1788,132.479,3,"这个名字有多适合这个图片？",6,"triangle.png",2,"trial_lists/trial_list_2"
"N7f3d","请为此图片命名",143.389,10889,"平底五角形",1275,145.668,1,"这个名字有多适合这个图片？",7,"VCS_230.png",2,"trial_lists/trial_list_2"
"N7f3d","请为此图片命名",159.872,14184,"四角形",3633,164.509,2,"这个名字有多适合这个图片？",8,"VCS_20.png",2,"trial_lists/trial_list_2"
"N7f3d","请为此图片命名",180.876,16346,"胸甲形",1894,183.774,1,"这个名字有多适合这个图片？",9,"VCS_170.png",2,"trial_lists/trial_list_2"
"N7f3d","请为此图片命名",219.246,35453,"四角形钝形",1345,221.596,1,"这个名字有多适合这个图片？",10,"VCS_320.png",2,"trial_lists/trial_list_2"
"N7f3d","请为此图片命名",230.193,8578,"胸甲形",1206,232.404,1,"这个名字有多适合这个图片？",11,"VCS_110.png",2,"trial_lists/trial_list_2"
"N7f3d","请为此图片命名",263.826,31401,"胄甲形",2022,266.853,1,"这个名字有多适合这个图片？",12,"VCS_200.png",2,"trial_lists/trial_list_2"
"N7f3d","请为此图片命名",275.911,9039,"正方形",2241,279.157,4,"这个名字有多适合这个图片？",13,"square.png",2,"trial_lists/trial_list_2"
"N7f3d","请为此图片命名",285.353,6177,"四角形",4192,290.55,2,"这个名字有多适合这个图片？",14,"VCS_350.png",2,"trial_lists/trial_list_2"
"N7f3d","请为此图片命名",301.877,11307,"平底五角形",2202,305.083,2,"这个名字有多适合这个图片？",15,"VCS_290.png",2,"trial_lists/trial_list_2"
"nDJ7m","请为此图片命名",247.279,35721,"脊骨",14109,262.403,2,"这个名字有多适合这个图片？?",1,"VCS_70.png",1,"trial_lists/trial_list_1"
"nDJ7m","请为此图片命名",305.498,43048,"小衫",25209,331.719,2,"这个名字有多适合这个图片？?",2,"VCS_100.png",1,"trial_lists/trial_list_1"
"nDJ7m","请为此图片命名",350.997,19233,"头冠",2417,354.425,2,"这个名字有多适合这个图片？?",3,"VCS_280.png",1,"trial_lists/trial_list_1"
"nDJ7m","请为此图片命名",372.134,17678,"五边形",2177,375.322,3,"这个名字有多适合这个图片？?",4,"VCS_220.png",1,"trial_lists/trial_list_1"
"nDJ7m","请为此图片命名",433.896,58560,"小罐",2158,437.065,2,"这个名字有多适合这个图片？?",5,"VCS_160.png",1,"trial_lists/trial_list_1"
"nDJ7m","请为此图片命名",546.058,108952,"四通",1957,549.033,2,"这个名字有多适合这个图片？?",6,"VCS_40.png",1,"trial_lists/trial_list_1"
"nDJ7m","请为此图片命名",613.572,64493,"大肚罐",1717,616.301,2,"这个名字有多适合这个图片？?",7,"VCS_190.png",1,"trial_lists/trial_list_1"
"nDJ7m","请为此图片命名",635.463,19125,"狗",7774,644.251,3,"这个名字有多适合这个图片？?",8,"dog.png",1,"trial_lists/trial_list_1"
"nDJ7m","请为此图片命名",781.675,137387,"房屋",2196,784.886,1,"这个名字有多适合这个图片？?",9,"VCS_250.png",1,"trial_lists/trial_list_1"
"nDJ7m","请为此图片命名",793.499,8576,"三角形",2401,796.907,3,"这个名字有多适合这个图片？?",10,"triangle.png",1,"trial_lists/trial_list_1"
"nDJ7m","请为此图片命名",807.513,10572,"正方形",3388,811.911,3,"这个名字有多适合这个图片？?",11,"square.png",1,"trial_lists/trial_list_1"
"nDJ7m","请为此图片命名",915.915,103970,"四角",1363,918.288,1,"这个名字有多适合这个图片？?",12,"VCS_340.png",1,"trial_lists/trial_list_1"
"nDJ7m","请为此图片命名",973.825,55502,"四角星",2928,977.763,2,"这个名字有多适合这个图片？?",13,"VCS_10.png",1,"trial_lists/trial_list_1"
"nDJ7m","请为此图片命名",1084.726,106927,"细腰罐",1713,1087.453,1,"这个名字有多适合这个图片？?",14,"VCS_130.png",1,"trial_lists/trial_list_1"
"nDJ7m","请为此图片命名",1156.448,68958,"异形",2612,1160.069,1,"这个名字有多适合这个图片？?",15,"VCS_310.png",1,"trial_lists/trial_list_1"
"NeraM","请为此图片命名",18.833,6167,"骨头",5277,25.124,3,"这个名字有多适合这个图片？",1,"VCS_80.png",2,"trial_lists/trial_list_2"
"NeraM","请为此图片命名",32.475,7340,"星星",1120,34.606,2,"这个名字有多适合这个图片？",2,"VCS_260.png",2,"trial_lists/trial_list_2"
"NeraM","请为此图片命名",51.575,16943,"厨师帽",1463,54.047,2,"这个名字有多适合这个图片？",3,"VCS_200.png",2,"trial_lists/trial_list_2"
"NeraM","请为此图片命名",68.088,14032,"近星星",969,70.066,3,"这个名字有多适合这个图片？",4,"VCS_230.png",2,"trial_lists/trial_list_2"
"NeraM","请为此图片命名",78.413,8338,"框",1530,80.953,3,"这个名字有多适合这个图片？",5,"square.png",2,"trial_lists/trial_list_2"
"NeraM","请为此图片命名",90.058,9096,"兔头",1305,92.375,3,"这个名字有多适合这个图片？",6,"VCS_110.png",2,"trial_lists/trial_list_2"
"NeraM","请为此图片命名",110.511,18125,"十字",738,112.257,2,"这个名字有多适合这个图片？",7,"VCS_50.png",2,"trial_lists/trial_list_2"
"NeraM","请为此图片命名",172.411,60142,"花瓶",1158,174.58,2,"这个名字有多适合这个图片？",8,"VCS_140.png",2,"trial_lists/trial_list_2"
"NeraM","请为此图片命名",181.429,6836,"四角星",992,183.435,3,"这个名字有多适合这个图片？",9,"VCS_350.png",2,"trial_lists/trial_list_2"
"NeraM","请为此图片命名",195.846,12398,"秋田犬",1101,197.956,4,"这个名字有多适合这个图片？",10,"dog.png",2,"trial_lists/trial_list_2"
"NeraM","请为此图片命名",250.494,52529,"奇异九边形",1499,253.006,2,"这个名字有多适合这个图片？",11,"VCS_290.png",2,"trial_lists/trial_list_2"
"NeraM","请为此图片命名",263.001,9973,"缸",1161,265.172,3,"这个名字有多适合这个图片？",12,"VCS_170.png",2,"trial_lists/trial_list_2"
"NeraM","请为此图片命名",271.773,6591,"等腰三角形",1461,274.244,3,"这个名字有多适合这个图片？",13,"triangle.png",2,"trial_lists/trial_list_2"
"NeraM","请为此图片命名",314.823,40555,"奇异十边形",1563,317.396,2,"这个名字有多适合这个图片？",14,"VCS_320.png",2,"trial_lists/trial_list_2"
"NeraM","请为此图片命名",328.365,10961,"十字",1344,330.718,2,"这个名字有多适合这个图片？",15,"VCS_20.png",2,"trial_lists/trial_list_2"
"NKy1c","请为此图片命名",113.595,32294,"金子塔",24593,139.238,4,"这个名字有多适合这个图片？",1,"triangle.png",2,"trial_lists/trial_list_2"
"NKy1c","请为此图片命名",187.805,48514,"缸",9529,198.364,3,"这个名字有多适合这个图片？",2,"VCS_170.png",2,"trial_lists/trial_list_2"
"NKy1c","请为此图片命名",226.168,27766,"房子",3754,230.949,3,"这个名字有多适合这个图片？",3,"VCS_230.png",2,"trial_lists/trial_list_2"
"NKy1c","请为此图片命名",253.068,22092,"狗",1891,255.982,2,"这个名字有多适合这个图片？",4,"dog.png",2,"trial_lists/trial_list_2"
"NKy1c","请为此图片命名",291.375,35369,"十字路口",1416,293.817,2,"这个名字有多适合这个图片？",5,"VCS_50.png",2,"trial_lists/trial_list_2"
"NKy1c","请为此图片命名",318.524,24668,"正方形",1466,321.014,2,"这个名字有多适合这个图片？",6,"square.png",2,"trial_lists/trial_list_2"
"NKy1c","请为此图片命名",334.746,13690,"星星",1471,337.239,2,"这个名字有多适合这个图片？",7,"VCS_350.png",2,"trial_lists/trial_list_2"
"NKy1c","请为此图片命名",376.536,39275,"楼",2567,380.13,2,"这个名字有多适合这个图片？",8,"VCS_290.png",2,"trial_lists/trial_list_2"
"NKy1c","请为此图片命名",429.518,49339,"上半身",1398,431.939,2,"这个名字有多适合这个图片？",9,"VCS_200.png",2,"trial_lists/trial_list_2"
"NKy1c","请为此图片命名",741.328,309343,"兔耳朵",2200,744.629,2,"这个名字有多适合这个图片？",10,"VCS_80.png",2,"trial_lists/trial_list_2"
"NKy1c","请为此图片命名",763.679,18942,"房子",1652,766.36,2,"这个名字有多适合这个图片？",11,"VCS_260.png",2,"trial_lists/trial_list_2"
"NKy1c","请为此图片命名",815.196,48793,"罐子",1362,817.587,2,"这个名字有多适合这个图片？",12,"VCS_140.png",2,"trial_lists/trial_list_2"
"NKy1c","请为此图片命名",832.181,14553,"飞机",1002,834.209,2,"这个名字有多适合这个图片？",13,"VCS_20.png",2,"trial_lists/trial_list_2"
"NKy1c","请为此图片命名",848.488,14223,"兔子",1234,850.751,2,"这个名字有多适合这个图片？",14,"VCS_110.png",2,"trial_lists/trial_list_2"
"NKy1c","请为此图片命名",876.755,25976,"火箭",1407,879.192,2,"这个名字有多适合这个图片？",15,"VCS_320.png",2,"trial_lists/trial_list_2"
"nPKiv","请为此图片命名",45.151,6902,"星星",8466,54.655,3,"这个名字有多适合这个图片？?",1,"VCS_340.png",1,"trial_lists/trial_list_1"
"nPKiv","请为此图片命名",114.217,19776,"水翁",3479,118.72,2,"这个名字有多适合这个图片？?",3,"VCS_160.png",1,"trial_lists/trial_list_1"
"nPKiv","请为此图片命名",138.431,19674,"白板",4141,143.589,1,"这个名字有多适合这个图片？?",4,"square.png",1,"trial_lists/trial_list_1"
"nPKiv","请为此图片命名",164.898,21278,"僧帽",8936,174.851,2,"这个名字有多适合这个图片？?",5,"VCS_250.png",1,"trial_lists/trial_list_1"
"nPKiv","请为此图片命名",225.084,40448,"水罐",1776,227.881,2,"这个名字有多适合这个图片？?",7,"VCS_130.png",1,"trial_lists/trial_list_1"
"nPKiv","请为此图片命名",237.187,9268,"狗",7169,245.383,4,"这个名字有多适合这个图片？?",8,"dog.png",1,"trial_lists/trial_list_1"
"nPKiv","请为此图片命名",295.385,49966,"肚兜",2164,298.573,2,"这个名字有多适合这个图片？?",9,"VCS_190.png",1,"trial_lists/trial_list_1"
"nPKiv","请为此图片命名",328.11,29503,"戟头",2663,331.796,2,"这个名字有多适合这个图片？?",10,"VCS_310.png",1,"trial_lists/trial_list_1"
"nPKiv","请为此图片命名",352.969,21144,"围兜兜",909,354.901,2,"这个名字有多适合这个图片？?",11,"VCS_100.png",1,"trial_lists/trial_list_1"
"nPKiv","请为此图片命名",364.753,9802,"僧帽",1831,367.607,3,"这个名字有多适合这个图片？?",12,"VCS_280.png",1,"trial_lists/trial_list_1"
"nPKiv","请为此图片命名",378.229,10594,"三角形",3086,382.342,4,"这个名字有多适合这个图片？?",13,"triangle.png",1,"trial_lists/trial_list_1"
"nPKiv","请为此图片命名",393.194,10824,"围兜兜",1027,395.244,2,"这个名字有多适合这个图片？?",14,"VCS_70.png",1,"trial_lists/trial_list_1"
"nPKiv","请为此图片命名",407.013,11732,"五边形",2977,411.022,3,"这个名字有多适合这个图片？?",15,"VCS_220.png",1,"trial_lists/trial_list_1"
"nVQ7K","请为此图片命名",50.433,11605,"杨桃",6851,58.297,3,"这个名字有多适合这个图片？",1,"VCS_360.png",3,"trial_lists/trial_list_3"
"nVQ7K","请为此图片命名",73.068,14757,"痰盂",1295,75.373,3,"这个名字有多适合这个图片？",2,"VCS_150.png",3,"trial_lists/trial_list_3"
"nVQ7K","请为此图片命名",96.299,20907,"护腰坐垫",1179,98.489,3,"这个名字有多适合这个图片？",3,"VCS_60.png",3,"trial_lists/trial_list_3"
"nVQ7K","请为此图片命名",117.391,18892,"飞镖",3330,121.729,3,"这个名字有多适合这个图片？",4,"VCS_330.png",3,"trial_lists/trial_list_3"
"nVQ7K","请为此图片命名",134.588,12847,"鸡爪子",1840,137.437,2,"这个名字有多适合这个图片？",5,"VCS_300.png",3,"trial_lists/trial_list_3"
"nVQ7K","请为此图片命名",159.511,22063,"盒子盖",2267,162.786,3,"这个名字有多适合这个图片？",6,"VCS_240.png",3,"trial_lists/trial_list_3"
"nVQ7K","请为此图片命名",178.255,15459,"耶",4408,183.673,1,"这个名字有多适合这个图片？",7,"VCS_90.png",3,"trial_lists/trial_list_3"
"nVQ7K","请为此图片命名",220.033,36349,"挂绳儿",829,221.875,4,"这个名字有多适合这个图片？",8,"VCS_210.png",3,"trial_lists/trial_list_3"
"nVQ7K","请为此图片命名",234.359,12473,"狗",1369,236.74,4,"这个名字有多适合这个图片？",9,"dog.png",3,"trial_lists/trial_list_3"
"nVQ7K","请为此图片命名",255.486,18735,"等腰三角形",976,257.472,4,"这个名字有多适合这个图片？",10,"triangle.png",3,"trial_lists/trial_list_3"
"nVQ7K","请为此图片命名",282.148,24665,"五角星没底",772,283.929,4,"这个名字有多适合这个图片？",11,"VCS_270.png",3,"trial_lists/trial_list_3"
"nVQ7K","请为此图片命名",289.898,5956,"正方形",764,291.671,4,"这个名字有多适合这个图片？",12,"square.png",3,"trial_lists/trial_list_3"
"nVQ7K","请为此图片命名",301.608,9927,"后脑勺儿",1072,303.691,4,"这个名字有多适合这个图片？",13,"VCS_180.png",3,"trial_lists/trial_list_3"
"nVQ7K","请为此图片命名",327.523,23823,"指陀螺",1636,330.17,4,"这个名字有多适合这个图片？",14,"VCS_30.png",3,"trial_lists/trial_list_3"
"nVQ7K","请为此图片命名",346.718,16538,"胖手耶",1032,348.759,4,"这个名字有多适合这个图片？",15,"VCS_120.png",3,"trial_lists/trial_list_3"
"oAfRK","请为此图片命名",103.991,55635,"熊出没",19743,124.743,3,"这个名字有多适合这个图片？?",1,"VCS_160.png",1,"trial_lists/trial_list_1"
"Ozxk7","请为此图片命名",35.412,31478,"体恤",27618,64.049,2,"这个名字有多适合这个图片？",1,"VCS_270.png",3,"trial_lists/trial_list_3"
"Ozxk7","请为此图片命名",87.047,22967,"五边形",6932,94.994,1,"这个名字有多适合这个图片？",2,"VCS_210.png",3,"trial_lists/trial_list_3"
"PH2GO","请为此图片命名",49.052,16507,"五边形",4550,54.612,3,"这个名字有多适合这个图片？?",1,"VCS_220.png",1,"trial_lists/trial_list_1"
"PH2GO","请为此图片命名",94.67,40038,"狗下半没毛",4602,100.278,3,"这个名字有多适合这个图片？?",2,"dog.png",1,"trial_lists/trial_list_1"
"PH2GO","请为此图片命名",109.154,8858,"平底五角星",1552,111.711,4,"这个名字有多适合这个图片？?",3,"VCS_250.png",1,"trial_lists/trial_list_1"
"PH2GO","请为此图片命名",134.455,22724,"广口瓦罐",2468,137.936,2,"这个名字有多适合这个图片？?",4,"VCS_160.png",1,"trial_lists/trial_list_1"
"PH2GO","请为此图片命名",162.443,24492,"瘦凸底五星",3482,166.931,1,"这个名字有多适合这个图片？?",5,"VCS_310.png",1,"trial_lists/trial_list_1"
"PH2GO","请为此图片命名",174.889,7938,"大正方",2621,178.515,3,"这个名字有多适合这个图片？?",6,"square.png",1,"trial_lists/trial_list_1"
"PH2GO","请为此图片命名",196.891,18356,"短耳撇嘴兔",2852,200.747,2,"这个名字有多适合这个图片？?",7,"VCS_70.png",1,"trial_lists/trial_list_1"
"PH2GO","请为此图片命名",207.562,6796,"四角海星",4016,212.582,3,"这个名字有多适合这个图片？?",8,"VCS_40.png",1,"trial_lists/trial_list_1"
"PH2GO","请为此图片命名",223.659,11057,"兔耳瓦罐",1402,226.067,1,"这个名字有多适合这个图片？?",9,"VCS_130.png",1,"trial_lists/trial_list_1"
"PH2GO","请为此图片命名",241.028,14943,"尖顶瓦罐",1471,243.503,2,"这个名字有多适合这个图片？?",10,"VCS_190.png",1,"trial_lists/trial_list_1"
"PH2GO","请为此图片命名",252.46,8938,"尖四角海星",1521,254.985,3,"这个名字有多适合这个图片？?",11,"VCS_10.png",1,"trial_lists/trial_list_1"
"PH2GO","请为此图片命名",270.024,15019,"尖等腰三角",1507,272.537,4,"这个名字有多适合这个图片？?",12,"triangle.png",1,"trial_lists/trial_list_1"
"PH2GO","请为此图片命名",312.615,40058,"下钝四角星",2201,315.821,1,"这个名字有多适合这个图片？?",13,"VCS_340.png",1,"trial_lists/trial_list_1"
"PH2GO","请为此图片命名",333.847,18007,"笑脸兔",1837,336.689,1,"这个名字有多适合这个图片？?",14,"VCS_100.png",1,"trial_lists/trial_list_1"
"PH2GO","请为此图片命名",342.53,5822,"平底五角星",4553,348.088,3,"这个名字有多适合这个图片？?",15,"VCS_280.png",1,"trial_lists/trial_list_1"
"pxmUv","请为此图片命名",35.859,21965,"牛头",3239,40.111,2,"这个名字有多适合这个图片？",1,"VCS_90.png",3,"trial_lists/trial_list_3"
"pxmUv","请为此图片命名",87.724,47600,"狗",3371,92.099,1,"这个名字有多适合这个图片？",2,"dog.png",3,"trial_lists/trial_list_3"
"Q7OGu","请为此图片命名",19.114,10188,"星形",8209,28.334,3,"这个名字有多适合这个图片？?",1,"VCS_250.png",1,"trial_lists/trial_list_1"
"Q7OGu","请为此图片命名",40.63,12268,"海星",7191,48.827,4,"这个名字有多适合这个图片？?",2,"VCS_10.png",1,"trial_lists/trial_list_1"
"Q7OGu","请为此图片命名",55.344,6493,"回旋镖",1799,58.149,2,"这个名字有多适合这个图片？?",3,"VCS_40.png",1,"trial_lists/trial_list_1"
"Q7OGu","请为此图片命名",76.814,18638,"饼干",1635,79.454,2,"这个名字有多适合这个图片？?",4,"VCS_190.png",1,"trial_lists/trial_list_1"
"qi9Lm","请为此图片命名",23.496,12721,"兔子",12763,37.277,3,"这个名字有多适合这个图片？",1,"VCS_80.png",2,"trial_lists/trial_list_2"
"qi9Lm","请为此图片命名",125.567,88264,"四不像",5173,131.753,3,"这个名字有多适合这个图片？",2,"VCS_50.png",2,"trial_lists/trial_list_2"
"qi9Lm","请为此图片命名",140.045,8259,"维尼",1710,142.764,4,"这个名字有多适合这个图片？",3,"VCS_140.png",2,"trial_lists/trial_list_2"
"qi9Lm","请为此图片命名",154.489,11702,"火炬",2339,157.836,4,"这个名字有多适合这个图片？",4,"VCS_290.png",2,"trial_lists/trial_list_2"
"qi9Lm","请为此图片命名",169.327,11466,"奇怪",1459,171.796,3,"这个名字有多适合这个图片？",5,"VCS_170.png",2,"trial_lists/trial_list_2"
"qi9Lm","请为此图片命名",196.523,24702,"守望",1343,198.877,4,"这个名字有多适合这个图片？",6,"dog.png",2,"trial_lists/trial_list_2"
"qi9Lm","请为此图片命名",225.882,26981,"冰凌",1674,228.565,4,"这个名字有多适合这个图片？",7,"VCS_320.png",2,"trial_lists/trial_list_2"
"qi9Lm","请为此图片命名",242.217,13631,"角",3437,246.659,4,"这个名字有多适合这个图片？",8,"triangle.png",2,"trial_lists/trial_list_2"
"qi9Lm","请为此图片命名",265.733,19050,"墩",1504,268.244,4,"这个名字有多适合这个图片？",9,"VCS_260.png",2,"trial_lists/trial_list_2"
"qi9Lm","请为此图片命名",285.047,16781,"飘",6267,292.325,4,"这个名字有多适合这个图片？",10,"VCS_350.png",2,"trial_lists/trial_list_2"
"qi9Lm","请为此图片命名",304.149,11800,"美丽",2019,307.176,4,"这个名字有多适合这个图片？",11,"VCS_20.png",2,"trial_lists/trial_list_2"
"qi9Lm","请为此图片命名",322.805,15605,"留白",1536,325.346,4,"这个名字有多适合这个图片？",12,"square.png",2,"trial_lists/trial_list_2"
"qi9Lm","请为此图片命名",341.307,15938,"俏皮",2600,344.917,4,"这个名字有多适合这个图片？",13,"VCS_110.png",2,"trial_lists/trial_list_2"
"qi9Lm","请为此图片命名",408.89,63946,"好吧",1041,410.95,4,"这个名字有多适合这个图片？",14,"VCS_230.png",2,"trial_lists/trial_list_2"
"qi9Lm","请为此图片命名",419.838,8854,"搞不懂",1310,422.158,4,"这个名字有多适合这个图片？",15,"VCS_200.png",2,"trial_lists/trial_list_2"
"qjTCZ","请为此图片命名",30.143,22874,"肥婆",5981,37.143,3,"这个名字有多适合这个图片？?",1,"VCS_160.png",1,"trial_lists/trial_list_1"
"qjTCZ","请为此图片命名",45.512,8330,"美女",2785,49.303,3,"这个名字有多适合这个图片？?",2,"VCS_100.png",1,"trial_lists/trial_list_1"
"qjTCZ","请为此图片命名",61.252,11916,"正在脱毛的狗狗",1755,64.014,3,"这个名字有多适合这个图片？?",3,"dog.png",1,"trial_lists/trial_list_1"
"qjTCZ","请为此图片命名",71.813,7780,"徽章",4634,77.453,2,"这个名字有多适合这个图片？?",4,"VCS_190.png",1,"trial_lists/trial_list_1"
"qjTCZ","请为此图片命名",104.056,26568,"缺了一角的飞镖",1392,106.455,3,"这个名字有多适合这个图片？?",5,"VCS_310.png",1,"trial_lists/trial_list_1"
"qjTCZ","请为此图片命名",119.81,13333,"耷拉下来的飞镖",1251,122.068,3,"这个名字有多适合这个图片？?",6,"VCS_70.png",1,"trial_lists/trial_list_1"
"qjTCZ","请为此图片命名",138.4,16299,"阿娜多姿",2052,141.461,4,"这个名字有多适合这个图片？?",7,"VCS_130.png",1,"trial_lists/trial_list_1"
"qjTCZ","请为此图片命名",152.897,11402,"长胖了的飞镖",1405,155.311,3,"这个名字有多适合这个图片？?",8,"VCS_250.png",1,"trial_lists/trial_list_1"
"qjTCZ","请为此图片命名",166.47,11126,"圆乎乎的飞镖",1597,169.077,2,"这个名字有多适合这个图片？?",9,"VCS_40.png",1,"trial_lists/trial_list_1"
"qjTCZ","请为此图片命名",175.038,5927,"正方形",1272,177.319,4,"这个名字有多适合这个图片？?",10,"square.png",1,"trial_lists/trial_list_1"
"qjTCZ","请为此图片命名",217.196,39842,"已经看不出来是飞镖的飞镖",1978,220.182,2,"这个名字有多适合这个图片？?",11,"VCS_220.png",1,"trial_lists/trial_list_1"
"qjTCZ","请为此图片命名",225.292,5075,"等边三角形",1091,227.392,4,"这个名字有多适合这个图片？?",12,"triangle.png",1,"trial_lists/trial_list_1"
"qjTCZ","请为此图片命名",242.344,14919,"特立独行的飞镖",1303,244.657,2,"这个名字有多适合这个图片？?",13,"VCS_340.png",1,"trial_lists/trial_list_1"
"qjTCZ","请为此图片命名",264.115,19423,"圆润而锋利的飞镖",2726,267.849,2,"这个名字有多适合这个图片？?",14,"VCS_10.png",1,"trial_lists/trial_list_1"
"qjTCZ","请为此图片命名",282.845,14961,"这个飞镖有点瘦",1471,285.323,1,"这个名字有多适合这个图片？?",15,"VCS_280.png",1,"trial_lists/trial_list_1"
"QkxuI","请为此图片命名",31.674,12777,"胸腔",5406,38.087,2,"这个名字有多适合这个图片？?",1,"VCS_190.png",1,"trial_lists/trial_list_1"
"QkxuI","请为此图片命名",72.046,33939,"拥抱",4860,77.91,2,"这个名字有多适合这个图片？?",2,"VCS_310.png",1,"trial_lists/trial_list_1"
"QTbE7","请为此图片命名",84.452,61816,"星矩形",8698,94.164,2,"这个名字有多适合这个图片？",1,"VCS_270.png",3,"trial_lists/trial_list_3"
"QTbE7","请为此图片命名",103.905,9702,"等腰三角形",2216,107.13,4,"这个名字有多适合这个图片？",2,"triangle.png",3,"trial_lists/trial_list_3"
"QTbE7","请为此图片命名",254.478,147318,"缺角四角星",2832,258.32,2,"这个名字有多适合这个图片？",3,"VCS_300.png",3,"trial_lists/trial_list_3"
"QTbE7","请为此图片命名",392.034,133683,"内凹五边形",5845,398.889,1,"这个名字有多适合这个图片？",4,"VCS_240.png",3,"trial_lists/trial_list_3"
"QTbE7","请为此图片命名",487.136,88212,"曲线类五边形",1368,489.512,1,"这个名字有多适合这个图片？",5,"VCS_180.png",3,"trial_lists/trial_list_3"
"QTbE7","请为此图片命名",523.174,33625,"曲线五边形",1497,525.68,1,"这个名字有多适合这个图片？",6,"VCS_210.png",3,"trial_lists/trial_list_3"
"QTbE7","请为此图片命名",640.293,114580,"非典型四角星",2714,644.016,1,"这个名字有多适合这个图片？",7,"VCS_330.png",3,"trial_lists/trial_list_3"
"QTbE7","请为此图片命名",718.997,74949,"电吉他面板形",3681,723.687,2,"这个名字有多适合这个图片？",8,"VCS_90.png",3,"trial_lists/trial_list_3"
"QTbE7","请为此图片命名",834.312,110591,"半内凹六边形",1745,837.066,2,"这个名字有多适合这个图片？",9,"VCS_150.png",3,"trial_lists/trial_list_3"
"QTbE7","请为此图片命名",875.747,38648,"四角星形",4645,881.401,3,"这个名字有多适合这个图片？",10,"VCS_360.png",3,"trial_lists/trial_list_3"
"QTbE7","请为此图片命名",937.064,55632,"半完成的狗",7930,946.002,2,"这个名字有多适合这个图片？",11,"dog.png",3,"trial_lists/trial_list_3"
"QTbE7","请为此图片命名",967.518,21484,"矩形",4144,972.672,3,"这个名字有多适合这个图片？",12,"square.png",3,"trial_lists/trial_list_3"
"QTbE7","请为此图片命名",1024.352,51648,"曲线四角星",3864,1029.224,3,"这个名字有多适合这个图片？",13,"VCS_60.png",3,"trial_lists/trial_list_3"
"QTbE7","请为此图片命名",1060.189,30933,"曲线四角星",2498,1063.695,3,"这个名字有多适合这个图片？",14,"VCS_30.png",3,"trial_lists/trial_list_3"
"QTbE7","请为此图片命名",1177.478,113747,"半内凹十一边形",2651,1181.137,1,"这个名字有多适合这个图片？",15,"VCS_120.png",3,"trial_lists/trial_list_3"
"R6kY2","请为此图片命名",15.969,8148,"等腰三角形",5048,22.025,3,"这个名字有多适合这个图片？?",1,"triangle.png",1,"trial_lists/trial_list_1"
"Rb31P","请为此图片命名",40.092,11130,"海绵宝宝",16373,57.478,3,"这个名字有多适合这个图片？",1,"VCS_80.png",2,"trial_lists/trial_list_2"
"Rb31P","请为此图片命名",77.036,19542,"圣母",2653,80.697,2,"这个名字有多适合这个图片？",2,"VCS_290.png",2,"trial_lists/trial_list_2"
"Rb31P","请为此图片命名",88.27,7557,"方尖碑",4455,93.732,3,"这个名字有多适合这个图片？",3,"VCS_320.png",2,"trial_lists/trial_list_2"
"Rb31P","请为此图片命名",110.12,16368,"靠背",2762,113.888,4,"这个名字有多适合这个图片？",4,"VCS_140.png",2,"trial_lists/trial_list_2"
"Rb31P","请为此图片命名",126.01,12105,"把手",2311,129.328,3,"这个名字有多适合这个图片？",5,"VCS_20.png",2,"trial_lists/trial_list_2"
"Rb31P","请为此图片命名",146.446,17100,"宝宝椅",2561,150.019,3,"这个名字有多适合这个图片？",6,"VCS_110.png",2,"trial_lists/trial_list_2"
"Rb31P","请为此图片命名",160.907,10867,"盾牌",1380,163.295,4,"这个名字有多适合这个图片？",7,"VCS_200.png",2,"trial_lists/trial_list_2"
"Rb31P","请为此图片命名",183.671,20359,"小星星",1500,186.176,2,"这个名字有多适合这个图片？",8,"VCS_260.png",2,"trial_lists/trial_list_2"
"Rb31P","请为此图片命名",197.143,10949,"尚美",1626,199.776,3,"这个名字有多适合这个图片？",9,"VCS_350.png",2,"trial_lists/trial_list_2"
"Rb31P","请为此图片命名",210.975,11180,"光屁股狗",1917,213.899,4,"这个名字有多适合这个图片？",10,"dog.png",2,"trial_lists/trial_list_2"
"Rb31P","请为此图片命名",229.243,15326,"正方形",7942,238.19,3,"这个名字有多适合这个图片？",11,"square.png",2,"trial_lists/trial_list_2"
"Rb31P","请为此图片命名",250.624,12414,"长三角",2026,253.656,3,"这个名字有多适合这个图片？",12,"triangle.png",2,"trial_lists/trial_list_2"
"Rb31P","请为此图片命名",276.336,22663,"小星星",1628,278.972,3,"这个名字有多适合这个图片？",13,"VCS_230.png",2,"trial_lists/trial_list_2"
"Rb31P","请为此图片命名",291.656,12666,"屁股垫",1476,294.139,3,"这个名字有多适合这个图片？",14,"VCS_50.png",2,"trial_lists/trial_list_2"
"Rb31P","请为此图片命名",305.026,10867,"水缸倒置",2353,308.386,3,"这个名字有多适合这个图片？",15,"VCS_170.png",2,"trial_lists/trial_list_2"
"RYad0","请为此图片命名",231.985,43890,"乖狗狗",35521,268.549,3,"这个名字有多适合这个图片？?",1,"dog.png",1,"trial_lists/trial_list_1"
"RYad0","请为此图片命名",308.32,39727,"异形花瓶",15181,324.529,2,"这个名字有多适合这个图片？?",2,"VCS_130.png",1,"trial_lists/trial_list_1"
"RYad0","请为此图片命名",440.377,115803,"简易飞机",3484,444.89,2,"这个名字有多适合这个图片？?",3,"VCS_10.png",1,"trial_lists/trial_list_1"
"RYad0","请为此图片命名",499.888,54950,"异形杯垫",3141,504.058,2,"这个名字有多适合这个图片？?",4,"VCS_40.png",1,"trial_lists/trial_list_1"
"RYad0","请为此图片命名",571.569,67466,"广告牌",4042,576.638,3,"这个名字有多适合这个图片？?",5,"VCS_280.png",1,"trial_lists/trial_list_1"
"RYad0","请为此图片命名",648.768,72094,"不规则",2114,651.909,2,"这个名字有多适合这个图片？?",6,"VCS_340.png",1,"trial_lists/trial_list_1"
"RYad0","请为此图片命名",705.692,53744,"隐形杀手",1819,708.539,3,"这个名字有多适合这个图片？?",7,"triangle.png",1,"trial_lists/trial_list_1"
"RYad0","请为此图片命名",728.392,19810,"小蛮腰",2436,731.858,2,"这个名字有多适合这个图片？?",8,"VCS_70.png",1,"trial_lists/trial_list_1"
"RYad0","请为此图片命名",762.597,30691,"中规中矩",3801,767.425,3,"这个名字有多适合这个图片？?",9,"VCS_250.png",1,"trial_lists/trial_list_1"
"RYad0","请为此图片命名",822.734,55264,"对称图形",2777,826.54,3,"这个名字有多适合这个图片？?",10,"VCS_100.png",1,"trial_lists/trial_list_1"
"RYad0","请为此图片命名",859.861,33278,"六角星",1783,862.672,2,"这个名字有多适合这个图片？?",11,"VCS_310.png",1,"trial_lists/trial_list_1"
"RYad0","请为此图片命名",881.472,18761,"储物罐",1790,884.291,3,"这个名字有多适合这个图片？?",12,"VCS_160.png",1,"trial_lists/trial_list_1"
"RYad0","请为此图片命名",909.443,25110,"无限可能",2429,912.904,3,"这个名字有多适合这个图片？?",13,"square.png",1,"trial_lists/trial_list_1"
"RYad0","请为此图片命名",942.762,29811,"标准量仓",2530,946.321,3,"这个名字有多适合这个图片？?",14,"VCS_220.png",1,"trial_lists/trial_list_1"
"RYad0","请为此图片命名",1062.256,115888,"储物空间",3870,1067.155,3,"这个名字有多适合这个图片？?",15,"VCS_190.png",1,"trial_lists/trial_list_1"
"SVhm1","请为此图片命名",44.613,13924,"多边形",12206,57.843,2,"这个名字有多适合这个图片？?",1,"VCS_220.png",1,"trial_lists/trial_list_1"
"t2YBw","请为此图片命名",110.433,18053,"狼狗",6359,117.817,3,"这个名字有多适合这个图片？",1,"dog.png",3,"trial_lists/trial_list_3"
"t2YBw","请为此图片命名",130.97,13111,"星星",2493,134.48,2,"这个名字有多适合这个图片？",2,"VCS_240.png",3,"trial_lists/trial_list_3"
"t2YBw","请为此图片命名",172.429,37927,"箭头",1951,175.401,2,"这个名字有多适合这个图片？",3,"VCS_300.png",3,"trial_lists/trial_list_3"
"t2YBw","请为此图片命名",184.045,8608,"三角",1825,186.891,3,"这个名字有多适合这个图片？",4,"triangle.png",3,"trial_lists/trial_list_3"
"t2YBw","请为此图片命名",201.366,14442,"罐子",3352,205.739,2,"这个名字有多适合这个图片？",5,"VCS_150.png",3,"trial_lists/trial_list_3"
"t2YBw","请为此图片命名",275.908,70130,"瓶子",1559,278.487,2,"这个名字有多适合这个图片？",6,"VCS_120.png",3,"trial_lists/trial_list_3"
"t2YBw","请为此图片命名",306.057,27533,"领结",1759,308.837,2,"这个名字有多适合这个图片？",7,"VCS_360.png",3,"trial_lists/trial_list_3"
"t2YBw","请为此图片命名",341.61,32734,"粮仓",910,343.545,2,"这个名字有多适合这个图片？",8,"VCS_210.png",3,"trial_lists/trial_list_3"
"t2YBw","请为此图片命名",376.497,32916,"花瓶",959,378.474,2,"这个名字有多适合这个图片？",9,"VCS_90.png",3,"trial_lists/trial_list_3"
"t2YBw","请为此图片命名",429.561,51045,"模型",1051,431.634,2,"这个名字有多适合这个图片？",10,"VCS_270.png",3,"trial_lists/trial_list_3"
"t2YBw","请为此图片命名",444.103,12439,"骨头",997,446.122,2,"这个名字有多适合这个图片？",11,"VCS_60.png",3,"trial_lists/trial_list_3"
"t2YBw","请为此图片命名",491.641,45484,"罐子",4058,496.724,2,"这个名字有多适合这个图片？",12,"VCS_180.png",3,"trial_lists/trial_list_3"
"t2YBw","请为此图片命名",506.686,9927,"骨头",992,508.7,2,"这个名字有多适合这个图片？",13,"VCS_30.png",3,"trial_lists/trial_list_3"
"t2YBw","请为此图片命名",598.059,89324,"空白",1874,600.954,3,"这个名字有多适合这个图片？",14,"square.png",3,"trial_lists/trial_list_3"
"t2YBw","请为此图片命名",612.102,11112,"陀螺",885,614.006,2,"这个名字有多适合这个图片？",15,"VCS_330.png",3,"trial_lists/trial_list_3"
"T3L0y","请为此图片命名",11.282,7797,"三角形",2052,14.362,1,"这个名字有多适合这个图片？?",1,"triangle.png",1,"trial_lists/trial_list_1"
"T3L0y","请为此图片命名",28.8,14410,"利剑",8286,38.102,3,"这个名字有多适合这个图片？?",2,"dog.png",1,"trial_lists/trial_list_1"
"T3L0y","请为此图片命名",47.163,9036,"枫叶",3712,51.887,2,"这个名字有多适合这个图片？?",3,"VCS_340.png",1,"trial_lists/trial_list_1"
"T3L0y","请为此图片命名",67.357,15430,"未知",5298,73.664,1,"这个名字有多适合这个图片？?",4,"square.png",1,"trial_lists/trial_list_1"
"T3L0y","请为此图片命名",83.735,10048,"梦幻",2907,87.662,3,"这个名字有多适合这个图片？?",5,"VCS_70.png",1,"trial_lists/trial_list_1"
"T3L0y","请为此图片命名",100.914,13229,"冰激凌",1396,103.321,3,"这个名字有多适合这个图片？?",6,"VCS_310.png",1,"trial_lists/trial_list_1"
"T3L0y","请为此图片命名",116.302,12965,"五边形",1187,118.507,1,"这个名字有多适合这个图片？?",7,"VCS_220.png",1,"trial_lists/trial_list_1"
"T3L0y","请为此图片命名",125.604,7074,"小兔",1327,127.948,2,"这个名字有多适合这个图片？?",8,"VCS_130.png",1,"trial_lists/trial_list_1"
"T3L0y","请为此图片命名",136.403,8433,"T恤",1345,138.762,3,"这个名字有多适合这个图片？?",9,"VCS_280.png",1,"trial_lists/trial_list_1"
"T3L0y","请为此图片命名",147.809,9024,"魔幻",1022,149.854,3,"这个名字有多适合这个图片？?",10,"VCS_100.png",1,"trial_lists/trial_list_1"
"T3L0y","请为此图片命名",157.404,7525,"水桶",1608,160.033,2,"这个名字有多适合这个图片？?",11,"VCS_190.png",1,"trial_lists/trial_list_1"
"T3L0y","请为此图片命名",170.548,10491,"T恤",5039,176.607,2,"这个名字有多适合这个图片？?",12,"VCS_250.png",1,"trial_lists/trial_list_1"
"T3L0y","请为此图片命名",189.386,12757,"花瓶",1722,192.124,2,"这个名字有多适合这个图片？?",13,"VCS_160.png",1,"trial_lists/trial_list_1"
"T3L0y","请为此图片命名",199.361,7214,"飞镖",1236,201.608,2,"这个名字有多适合这个图片？?",14,"VCS_10.png",1,"trial_lists/trial_list_1"
"T3L0y","请为此图片命名",221.686,20056,"水泡",1308,224.004,2,"这个名字有多适合这个图片？?",15,"VCS_40.png",1,"trial_lists/trial_list_1"
"T5OD1","请为此图片命名",40.653,11315,"杨桃",5083,46.753,3,"这个名字有多适合这个图片？",1,"VCS_240.png",3,"trial_lists/trial_list_3"
"T5OD1","请为此图片命名",243.907,91377,"肚兜",1784,246.699,2,"这个名字有多适合这个图片？",3,"VCS_150.png",3,"trial_lists/trial_list_3"
"T5OD1","请为此图片命名",257.116,10408,"四角星",1502,259.628,4,"这个名字有多适合这个图片？",4,"VCS_30.png",3,"trial_lists/trial_list_3"
"T5OD1","请为此图片命名",289.126,29490,"伸展运动",2667,292.801,2,"这个名字有多适合这个图片？",5,"VCS_300.png",3,"trial_lists/trial_list_3"
"T5OD1","请为此图片命名",304.159,11348,"等腰三角",1959,307.127,4,"这个名字有多适合这个图片？",6,"triangle.png",3,"trial_lists/trial_list_3"
"T5OD1","请为此图片命名",318.771,11636,"泡泡糖",1082,320.861,2,"这个名字有多适合这个图片？",7,"VCS_60.png",3,"trial_lists/trial_list_3"
"T5OD1","请为此图片命名",348.466,27597,"收腰肚兜",2155,351.629,2,"这个名字有多适合这个图片？",8,"VCS_120.png",3,"trial_lists/trial_list_3"
"T5OD1","请为此图片命名",377.464,25827,"闪亮",4629,383.101,2,"这个名字有多适合这个图片？",9,"VCS_360.png",3,"trial_lists/trial_list_3"
"T5OD1","请为此图片命名",497.237,114128,"铁蒺藜",6373,504.619,3,"这个名字有多适合这个图片？",10,"VCS_330.png",3,"trial_lists/trial_list_3"
"T5OD1","请为此图片命名",525.662,21031,"加宽肚兜",1457,528.129,2,"这个名字有多适合这个图片？",11,"VCS_180.png",3,"trial_lists/trial_list_3"
"T5OD1","请为此图片命名",536.821,8669,"正方形",930,538.76,4,"这个名字有多适合这个图片？",12,"square.png",3,"trial_lists/trial_list_3"
"T5OD1","请为此图片命名",550.632,11859,"五边形",2790,554.431,3,"这个名字有多适合这个图片？",13,"VCS_210.png",3,"trial_lists/trial_list_3"
"T5OD1","请为此图片命名",560.169,5730,"狗",1460,562.641,4,"这个名字有多适合这个图片？",14,"dog.png",3,"trial_lists/trial_list_3"
"T5OD1","请为此图片命名",597.121,34457,"笔托",2264,600.398,2,"这个名字有多适合这个图片？",15,"VCS_90.png",3,"trial_lists/trial_list_3"
"t6aLu","请为此图片命名",73.288,25106,"曲线",18959,93.277,4,"这个名字有多适合这个图片？",1,"VCS_90.png",3,"trial_lists/trial_list_3"
"t6aLu","请为此图片命名",100.16,6874,"袋子",2110,103.279,4,"这个名字有多适合这个图片？",2,"VCS_210.png",3,"trial_lists/trial_list_3"
"t6aLu","请为此图片命名",111.234,7928,"五角星",3212,115.455,3,"这个名字有多适合这个图片？",3,"VCS_330.png",3,"trial_lists/trial_list_3"
"t6aLu","请为此图片命名",124.011,8518,"狗",1969,126.988,4,"这个名字有多适合这个图片？",4,"dog.png",3,"trial_lists/trial_list_3"
