"subjCode","naming_question","naming_expTimer","naming_rt","nameing_response","goodness_of_fit_rt","goodness_of_fit_expTimer","goodness_of_fit","confidence_question","trial_number","image","trial_list_num","batchFile"
"8042A",".الرجاء تسمية هذه الصورة",231.844,41562,"ذئب",14559,247.42,4,"ما مدى تطابق هذا الاسم مع هذه الصورة؟",1,"dog.png",3,"trial_lists/trial_list_3"
"8042A",".الرجاء تسمية هذه الصورة",295.216,47764,"قبعه",10250,306.473,2,"ما مدى تطابق هذا الاسم مع هذه الصورة؟",2,"VCS_300.png",3,"trial_lists/trial_list_3"
"8042A",".الرجاء تسمية هذه الصورة",318.454,11945,"مثلث",2479,321.94,4,"ما مدى تطابق هذا الاسم مع هذه الصورة؟",3,"triangle.png",3,"trial_lists/trial_list_3"
"8042A",".الرجاء تسمية هذه الصورة",412.173,90199,"اكس",2383,415.561,2,"ما مدى تطابق هذا الاسم مع هذه الصورة؟",4,"VCS_30.png",3,"trial_lists/trial_list_3"
"8042A",".الرجاء تسمية هذه الصورة",459.698,44110,"طائرة",2526,463.229,3,"ما مدى تطابق هذا الاسم مع هذه الصورة؟",5,"VCS_330.png",3,"trial_lists/trial_list_3"
"8042A",".الرجاء تسمية هذه الصورة",501.212,37953,"قبعه",2296,504.515,3,"ما مدى تطابق هذا الاسم مع هذه الصورة؟",6,"VCS_90.png",3,"trial_lists/trial_list_3"
"8042A",".الرجاء تسمية هذه الصورة",534.36,29811,"أرنب",3683,539.049,3,"ما مدى تطابق هذا الاسم مع هذه الصورة؟",7,"VCS_120.png",3,"trial_lists/trial_list_3"
"8042A",".الرجاء تسمية هذه الصورة",562.052,22969,"قبعة",3361,566.418,4,"ما مدى تطابق هذا الاسم مع هذه الصورة؟",8,"VCS_270.png",3,"trial_lists/trial_list_3"
"8042A",".الرجاء تسمية هذه الصورة",579.349,12899,"بلس",2480,582.835,3,"ما مدى تطابق هذا الاسم مع هذه الصورة؟",9,"VCS_60.png",3,"trial_lists/trial_list_3"
"8042A",".الرجاء تسمية هذه الصورة",599.351,16482,"جرة",1546,601.904,4,"ما مدى تطابق هذا الاسم مع هذه الصورة؟",10,"VCS_150.png",3,"trial_lists/trial_list_3"
"8042A",".الرجاء تسمية هذه الصورة",659.182,57244,"بيت",4502,664.689,3,"ما مدى تطابق هذا الاسم مع هذه الصورة؟",11,"VCS_240.png",3,"trial_lists/trial_list_3"
"8042A",".الرجاء تسمية هذه الصورة",673.169,8445,"جرة",2064,676.239,3,"ما مدى تطابق هذا الاسم مع هذه الصورة؟",12,"VCS_180.png",3,"trial_lists/trial_list_3"
"8042A",".الرجاء تسمية هذه الصورة",695.59,19320,"مربع",1979,698.586,3,"ما مدى تطابق هذا الاسم مع هذه الصورة؟",13,"square.png",3,"trial_lists/trial_list_3"
"8042A",".الرجاء تسمية هذه الصورة",733.108,34493,"طائرةة",4609,738.725,3,"ما مدى تطابق هذا الاسم مع هذه الصورة؟",14,"VCS_360.png",3,"trial_lists/trial_list_3"
"8042A",".الرجاء تسمية هذه الصورة",759.78,21023,"لا اعرف",4673,765.459,2,"ما مدى تطابق هذا الاسم مع هذه الصورة؟",15,"VCS_210.png",3,"trial_lists/trial_list_3"
"80KZe",".الرجاء تسمية هذه الصورة",27.868,14567,"شكل عشوائي",5282,34.162,3,"ما مدى تطابق هذا الاسم مع هذه الصورة؟",1,"VCS_60.png",3,"trial_lists/trial_list_3"
"819XB",".الرجاء تسمية هذه الصورة",89.476,6558,"مربع",30251,120.74,4,"ما مدى تطابق هذا الاسم مع هذه الصورة؟",1,"square.png",3,"trial_lists/trial_list_3"
"8CkH4",".الرجاء تسمية هذه الصورة",41.976,29010,"شكل",16843,59.846,2,"ما مدى تطابق هذا الاسم مع هذه الصورة؟",1,"VCS_170.png",2,"trial_lists/trial_list_2"
"8CkH4",".الرجاء تسمية هذه الصورة",90.85,30966,"فازا",8642,100.509,2,"ما مدى تطابق هذا الاسم مع هذه الصورة؟",2,"VCS_140.png",2,"trial_lists/trial_list_2"
"8CkH4",".الرجاء تسمية هذه الصورة",117.348,16807,"نجمه رباعيه",2743,121.113,3,"ما مدى تطابق هذا الاسم مع هذه الصورة؟",3,"VCS_320.png",2,"trial_lists/trial_list_2"
"8CkH4",".الرجاء تسمية هذه الصورة",131.59,10447,"كلب",4782,137.392,4,"ما مدى تطابق هذا الاسم مع هذه الصورة؟",4,"dog.png",2,"trial_lists/trial_list_2"
"8CkH4",".الرجاء تسمية هذه الصورة",149.092,11670,"بلوزه",2032,152.146,4,"ما مدى تطابق هذا الاسم مع هذه الصورة؟",5,"VCS_80.png",2,"trial_lists/trial_list_2"
"8CkH4",".الرجاء تسمية هذه الصورة",167.135,14958,"نجمه و مربع",2536,170.689,3,"ما مدى تطابق هذا الاسم مع هذه الصورة؟",6,"VCS_260.png",2,"trial_lists/trial_list_2"
"8CkH4",".الرجاء تسمية هذه الصورة",184.403,13683,"زائد",2592,188.012,2,"ما مدى تطابق هذا الاسم مع هذه الصورة؟",7,"VCS_50.png",2,"trial_lists/trial_list_2"
"8CkH4",".الرجاء تسمية هذه الصورة",208.595,20540,"مثلث متساوي الساقين",1806,211.428,4,"ما مدى تطابق هذا الاسم مع هذه الصورة؟",8,"triangle.png",2,"trial_lists/trial_list_2"
"8CkH4",".الرجاء تسمية هذه الصورة",218.708,7243,"سهم",2250,221.979,2,"ما مدى تطابق هذا الاسم مع هذه الصورة؟",9,"VCS_230.png",2,"trial_lists/trial_list_2"
"8CkH4",".الرجاء تسمية هذه الصورة",240.814,18805,"سلاح",2118,243.948,1,"ما مدى تطابق هذا الاسم مع هذه الصورة؟",10,"VCS_20.png",2,"trial_lists/trial_list_2"
"8CkH4",".الرجاء تسمية هذه الصورة",250.167,6191,"نجمه",2234,253.418,1,"ما مدى تطابق هذا الاسم مع هذه الصورة؟",11,"VCS_350.png",2,"trial_lists/trial_list_2"
"8CkH4",".الرجاء تسمية هذه الصورة",261.494,8044,"مربع",1132,263.647,4,"ما مدى تطابق هذا الاسم مع هذه الصورة؟",12,"square.png",2,"trial_lists/trial_list_2"
"8CkH4",".الرجاء تسمية هذه الصورة",271.269,7592,"سهم",2299,274.584,2,"ما مدى تطابق هذا الاسم مع هذه الصورة؟",13,"VCS_290.png",2,"trial_lists/trial_list_2"
"8CkH4",".الرجاء تسمية هذه الصورة",287.7,13086,"نشان",2755,291.472,2,"ما مدى تطابق هذا الاسم مع هذه الصورة؟",14,"VCS_200.png",2,"trial_lists/trial_list_2"
"8CkH4",".الرجاء تسمية هذه الصورة",297.54,6039,"فازا",1814,300.373,2,"ما مدى تطابق هذا الاسم مع هذه الصورة؟",15,"VCS_110.png",2,"trial_lists/trial_list_2"
"8DHaR",".الرجاء تسمية هذه الصورة",148.254,110394,"شعار مكون من جزء من نجمة من الأعلى وقاعدة مربعة",34915,184.187,3,"ما مدى تطابق هذا الاسم مع هذه الصورة؟",1,"VCS_290.png",2,"trial_lists/trial_list_2"
"8DHaR",".الرجاء تسمية هذه الصورة",201.869,17653,"حلقة خماسية",5464,208.343,3,"ما مدى تطابق هذا الاسم مع هذه الصورة؟",2,"VCS_230.png",2,"trial_lists/trial_list_2"
"8DHaR",".الرجاء تسمية هذه الصورة",241.012,32642,"شعار نجمة من الاعلى وقاعدة مربعة",4252,246.273,3,"ما مدى تطابق هذا الاسم مع هذه الصورة؟",3,"VCS_260.png",2,"trial_lists/trial_list_2"
"8DHaR",".الرجاء تسمية هذه الصورة",278.842,32545,"فازة للورد",4404,284.255,2,"ما مدى تطابق هذا الاسم مع هذه الصورة؟",4,"VCS_140.png",2,"trial_lists/trial_list_2"
"8DHaR",".الرجاء تسمية هذه الصورة",296.762,12483,"نجمة رباعية",1375,299.149,4,"ما مدى تطابق هذا الاسم مع هذه الصورة؟",5,"VCS_350.png",2,"trial_lists/trial_list_2"
"8DHaR",".الرجاء تسمية هذه الصورة",322.314,23138,"نجمة رباعية محدبة الاطراف",3382,326.705,3,"ما مدى تطابق هذا الاسم مع هذه الصورة؟",6,"VCS_20.png",2,"trial_lists/trial_list_2"
"8DHaR",".الرجاء تسمية هذه الصورة",340.78,14049,"مثلث متساوي الساقين",2925,344.719,4,"ما مدى تطابق هذا الاسم مع هذه الصورة؟",7,"triangle.png",2,"trial_lists/trial_list_2"
"8DHaR",".الرجاء تسمية هذه الصورة",352.112,7368,"كلب",3650,356.77,3,"ما مدى تطابق هذا الاسم مع هذه الصورة؟",8,"dog.png",2,"trial_lists/trial_list_2"
"8DHaR",".الرجاء تسمية هذه الصورة",380.435,23640,"حلقة متعرجة",1963,383.407,2,"ما مدى تطابق هذا الاسم مع هذه الصورة؟",9,"VCS_80.png",2,"trial_lists/trial_list_2"
"8DHaR",".الرجاء تسمية هذه الصورة",393.716,10279,"حلقة متعرجة",2808,397.533,2,"ما مدى تطابق هذا الاسم مع هذه الصورة؟",10,"VCS_110.png",2,"trial_lists/trial_list_2"
"8DHaR",".الرجاء تسمية هذه الصورة",404.414,6862,"مربع",2067,407.491,4,"ما مدى تطابق هذا الاسم مع هذه الصورة؟",11,"square.png",2,"trial_lists/trial_list_2"
"8DHaR",".الرجاء تسمية هذه الصورة",421.368,13853,"شكل غير منتظم",1255,423.632,3,"ما مدى تطابق هذا الاسم مع هذه الصورة؟",12,"VCS_170.png",2,"trial_lists/trial_list_2"
"8DHaR",".الرجاء تسمية هذه الصورة",465.056,41398,"من الاعلى مدبب والقاعدة مستقيمة الاطراف متعرجة",2308,468.373,2,"ما مدى تطابق هذا الاسم مع هذه الصورة؟",13,"VCS_200.png",2,"trial_lists/trial_list_2"
"8DHaR",".الرجاء تسمية هذه الصورة",479.486,11097,"حرف x",1558,482.052,3,"ما مدى تطابق هذا الاسم مع هذه الصورة؟",14,"VCS_50.png",2,"trial_lists/trial_list_2"
"8DHaR",".الرجاء تسمية هذه الصورة",514.843,32777,"شبه نجمة",1581,517.434,2,"ما مدى تطابق هذا الاسم مع هذه الصورة؟",15,"VCS_320.png",2,"trial_lists/trial_list_2"
"8edmu",".الرجاء تسمية هذه الصورة",97.245,76868,"خماسي منحرف",14236,112.489,2,"ما مدى تطابق هذا الاسم مع هذه الصورة؟",1,"VCS_210.png",3,"trial_lists/trial_list_3"
"8edmu",".الرجاء تسمية هذه الصورة",125.004,12496,"نجمه مبتكره",13017,139.026,4,"ما مدى تطابق هذا الاسم مع هذه الصورة؟",2,"VCS_330.png",3,"trial_lists/trial_list_3"
"8edmu",".الرجاء تسمية هذه الصورة",157.182,18131,"نجمة ذات اربع زوايا",8035,166.221,3,"ما مدى تطابق هذا الاسم مع هذه الصورة؟",3,"VCS_360.png",3,"trial_lists/trial_list_3"
"8edmu",".الرجاء تسمية هذه الصورة",181.112,14868,"كلب",8415,190.531,4,"ما مدى تطابق هذا الاسم مع هذه الصورة؟",4,"dog.png",3,"trial_lists/trial_list_3"
"8edmu",".الرجاء تسمية هذه الصورة",237.291,46737,"مربع رأسه نجم",7912,246.208,2,"ما مدى تطابق هذا الاسم مع هذه الصورة؟",5,"VCS_300.png",3,"trial_lists/trial_list_3"
"8edmu",".الرجاء تسمية هذه الصورة",258.087,11855,"عشوائي",8049,267.139,1,"ما مدى تطابق هذا الاسم مع هذه الصورة؟",6,"VCS_180.png",3,"trial_lists/trial_list_3"
"8edmu",".الرجاء تسمية هذه الصورة",301.453,34289,"جسم ساعه رمليه ممتلئ",3811,306.268,1,"ما مدى تطابق هذا الاسم مع هذه الصورة؟",7,"VCS_150.png",3,"trial_lists/trial_list_3"
"8edmu",".الرجاء تسمية هذه الصورة",312.256,5964,"مثلث",8054,321.321,3,"ما مدى تطابق هذا الاسم مع هذه الصورة؟",8,"triangle.png",3,"trial_lists/trial_list_3"
"8edmu",".الرجاء تسمية هذه الصورة",326.159,4813,"مربع",3417,330.58,4,"ما مدى تطابق هذا الاسم مع هذه الصورة؟",9,"square.png",3,"trial_lists/trial_list_3"
"8edmu",".الرجاء تسمية هذه الصورة",362.958,32355,"يمكن ان يكون سمكة لو فستان",8966,372.928,1,"ما مدى تطابق هذا الاسم مع هذه الصورة؟",10,"VCS_120.png",3,"trial_lists/trial_list_3"
"8GI9C",".الرجاء تسمية هذه الصورة",77.324,20246,"جرة",9024,87.384,2,"ما مدى تطابق هذا الاسم مع هذه الصورة؟",1,"VCS_130.png",1,"trial_lists/trial_list_1"
"8GI9C",".الرجاء تسمية هذه الصورة",99.175,11747,"مزهرية",2121,102.323,2,"ما مدى تطابق هذا الاسم مع هذه الصورة؟",2,"VCS_250.png",1,"trial_lists/trial_list_1"
"8GI9C",".الرجاء تسمية هذه الصورة",120.998,18650,"شكل هندسي",1340,123.359,2,"ما مدى تطابق هذا الاسم مع هذه الصورة؟",3,"VCS_220.png",1,"trial_lists/trial_list_1"
"8GI9C",".الرجاء تسمية هذه الصورة",136.465,13073,"شكل هندسي",1689,139.172,2,"ما مدى تطابق هذا الاسم مع هذه الصورة؟",4,"VCS_160.png",1,"trial_lists/trial_list_1"
"8GI9C",".الرجاء تسمية هذه الصورة",145.972,6761,"كلب",3655,150.656,4,"ما مدى تطابق هذا الاسم مع هذه الصورة؟",5,"dog.png",1,"trial_lists/trial_list_1"
"8GI9C",".الرجاء تسمية هذه الصورة",157.959,7272,"مثلث",1643,160.632,4,"ما مدى تطابق هذا الاسم مع هذه الصورة؟",6,"triangle.png",1,"trial_lists/trial_list_1"
"8GI9C",".الرجاء تسمية هذه الصورة",165.779,5113,"شكل",1532,168.343,2,"ما مدى تطابق هذا الاسم مع هذه الصورة؟",7,"VCS_100.png",1,"trial_lists/trial_list_1"
"8GI9C",".الرجاء تسمية هذه الصورة",176.884,8506,"شكل",1455,179.358,2,"ما مدى تطابق هذا الاسم مع هذه الصورة؟",8,"VCS_10.png",1,"trial_lists/trial_list_1"
"8GI9C",".الرجاء تسمية هذه الصورة",185.643,6262,"مربع",4576,191.249,4,"ما مدى تطابق هذا الاسم مع هذه الصورة؟",9,"square.png",1,"trial_lists/trial_list_1"
"8GI9C",".الرجاء تسمية هذه الصورة",200.029,8746,"شكل",3023,204.074,3,"ما مدى تطابق هذا الاسم مع هذه الصورة؟",10,"VCS_40.png",1,"trial_lists/trial_list_1"
"8GI9C",".الرجاء تسمية هذه الصورة",208.701,4596,"شكل",1862,211.586,2,"ما مدى تطابق هذا الاسم مع هذه الصورة؟",11,"VCS_190.png",1,"trial_lists/trial_list_1"
"8GI9C",".الرجاء تسمية هذه الصورة",222.886,11266,"شكل هندسي",4676,228.59,2,"ما مدى تطابق هذا الاسم مع هذه الصورة؟",12,"VCS_310.png",1,"trial_lists/trial_list_1"
"8GI9C",".الرجاء تسمية هذه الصورة",236.274,7652,"شكل",2423,239.718,2,"ما مدى تطابق هذا الاسم مع هذه الصورة؟",13,"VCS_70.png",1,"trial_lists/trial_list_1"
"8GI9C",".الرجاء تسمية هذه الصورة",243.602,3856,"شكل",1859,246.482,2,"ما مدى تطابق هذا الاسم مع هذه الصورة؟",14,"VCS_340.png",1,"trial_lists/trial_list_1"
"8GI9C",".الرجاء تسمية هذه الصورة",251.869,5355,"شكل هندسي",1680,254.566,2,"ما مدى تطابق هذا الاسم مع هذه الصورة؟",15,"VCS_280.png",1,"trial_lists/trial_list_1"
"8JaUA",".الرجاء تسمية هذه الصورة",39.454,19775,"جره",13441,53.929,2,"ما مدى تطابق هذا الاسم مع هذه الصورة؟",1,"VCS_170.png",2,"trial_lists/trial_list_2"
"8JaUA",".الرجاء تسمية هذه الصورة",75.67,21683,"كلب",7081,83.777,4,"ما مدى تطابق هذا الاسم مع هذه الصورة؟",2,"dog.png",2,"trial_lists/trial_list_2"
"8JaUA",".الرجاء تسمية هذه الصورة",95.608,11790,"شكل غير معروف",6122,102.753,1,"ما مدى تطابق هذا الاسم مع هذه الصورة؟",3,"VCS_320.png",2,"trial_lists/trial_list_2"
"8JaUA",".الرجاء تسمية هذه الصورة",117.711,14910,"دا شنو دا ياخ",1396,120.133,1,"ما مدى تطابق هذا الاسم مع هذه الصورة؟",4,"VCS_230.png",2,"trial_lists/trial_list_2"
"8JaUA",".الرجاء تسمية هذه الصورة",131.363,11186,"يااااااخخخي اشكال غبية",1397,133.785,1,"ما مدى تطابق هذا الاسم مع هذه الصورة؟",5,"VCS_200.png",2,"trial_lists/trial_list_2"
"8JaUA",".الرجاء تسمية هذه الصورة",142.873,9030,"د",1197,145.087,1,"ما مدى تطابق هذا الاسم مع هذه الصورة؟",6,"VCS_290.png",2,"trial_lists/trial_list_2"
"8JKsu",".الرجاء تسمية هذه الصورة",512.161,178347,"شبيه شكل هندسي",16162,529.345,1,"ما مدى تطابق هذا الاسم مع هذه الصورة؟",1,"VCS_70.png",1,"trial_lists/trial_list_1"
"8JKsu",".الرجاء تسمية هذه الصورة",546.908,17542,"مكعب نجمه",6084,554.011,3,"ما مدى تطابق هذا الاسم مع هذه الصورة؟",2,"VCS_280.png",1,"trial_lists/trial_list_1"
"8JKsu",".الرجاء تسمية هذه الصورة",584.665,30638,"شكل غريب",4821,590.505,1,"ما مدى تطابق هذا الاسم مع هذه الصورة؟",3,"VCS_40.png",1,"trial_lists/trial_list_1"
"8JKsu",".الرجاء تسمية هذه الصورة",603.936,13415,"ثعلب",7747,612.708,3,"ما مدى تطابق هذا الاسم مع هذه الصورة؟",4,"dog.png",1,"trial_lists/trial_list_1"
"8JKsu",".الرجاء تسمية هذه الصورة",623.793,11071,"شبيه ارنب",6219,631.03,2,"ما مدى تطابق هذا الاسم مع هذه الصورة؟",5,"VCS_100.png",1,"trial_lists/trial_list_1"
"8JKsu",".الرجاء تسمية هذه الصورة",651.677,20632,"مكعب زجزاج",2296,654.992,2,"ما مدى تطابق هذا الاسم مع هذه الصورة؟",6,"VCS_190.png",1,"trial_lists/trial_list_1"
"8JKsu",".الرجاء تسمية هذه الصورة",680.221,25214,"مربع",2295,683.536,4,"ما مدى تطابق هذا الاسم مع هذه الصورة؟",7,"square.png",1,"trial_lists/trial_list_1"
"8JKsu",".الرجاء تسمية هذه الصورة",698.709,15155,"نجمه",1742,701.469,1,"ما مدى تطابق هذا الاسم مع هذه الصورة؟",8,"VCS_340.png",1,"trial_lists/trial_list_1"
"8JKsu",".الرجاء تسمية هذه الصورة",785.169,83685,"نجمه غير منتظمه",4654,790.844,2,"ما مدى تطابق هذا الاسم مع هذه الصورة؟",9,"VCS_310.png",1,"trial_lists/trial_list_1"
"8JKsu",".الرجاء تسمية هذه الصورة",821.607,30749,"شكل غير منتظم",4816,827.447,2,"ما مدى تطابق هذا الاسم مع هذه الصورة؟",10,"VCS_10.png",1,"trial_lists/trial_list_1"
"8JKsu",".الرجاء تسمية هذه الصورة",861.836,34373,"خماسي الاضلاع",3380,866.24,4,"ما مدى تطابق هذا الاسم مع هذه الصورة؟",11,"VCS_220.png",1,"trial_lists/trial_list_1"
"8JKsu",".الرجاء تسمية هذه الصورة",890.103,23845,"شكل غريب",2592,893.715,1,"ما مدى تطابق هذا الاسم مع هذه الصورة؟",12,"VCS_130.png",1,"trial_lists/trial_list_1"
"8JKsu",".الرجاء تسمية هذه الصورة",905.088,11358,"مربع نجمه",3070,909.182,3,"ما مدى تطابق هذا الاسم مع هذه الصورة؟",13,"VCS_250.png",1,"trial_lists/trial_list_1"
"8JKsu",".الرجاء تسمية هذه الصورة",931.385,22189,"مربع غير منتظم",2527,934.929,1,"ما مدى تطابق هذا الاسم مع هذه الصورة؟",14,"VCS_160.png",1,"trial_lists/trial_list_1"
"8JKsu",".الرجاء تسمية هذه الصورة",939.171,4227,"مثلث",2645,942.838,4,"ما مدى تطابق هذا الاسم مع هذه الصورة؟",15,"triangle.png",1,"trial_lists/trial_list_1"
"8LGit",".الرجاء تسمية هذه الصورة",31.307,15616,"شكل منحني",7069,39.409,3,"ما مدى تطابق هذا الاسم مع هذه الصورة؟",1,"VCS_100.png",1,"trial_lists/trial_list_1"
"8LGit",".الرجاء تسمية هذه الصورة",58.871,19421,"منحني مغلق",2343,62.235,2,"ما مدى تطابق هذا الاسم مع هذه الصورة؟",2,"VCS_130.png",1,"trial_lists/trial_list_1"
"8LGit",".الرجاء تسمية هذه الصورة",90.789,28523,"شكل ثماني",991,92.806,4,"ما مدى تطابق هذا الاسم مع هذه الصورة؟",3,"VCS_250.png",1,"trial_lists/trial_list_1"
"8LGit",".الرجاء تسمية هذه الصورة",102.784,9939,"مربع",1868,105.677,4,"ما مدى تطابق هذا الاسم مع هذه الصورة؟",4,"square.png",1,"trial_lists/trial_list_1"
"8LGit",".الرجاء تسمية هذه الصورة",114.778,9067,"نجمه بحر",1378,117.18,3,"ما مدى تطابق هذا الاسم مع هذه الصورة؟",5,"VCS_40.png",1,"trial_lists/trial_list_1"
"8LGit",".الرجاء تسمية هذه الصورة",121.28,4061,"كلب",1336,123.634,4,"ما مدى تطابق هذا الاسم مع هذه الصورة؟",6,"dog.png",1,"trial_lists/trial_list_1"
"8LGit",".الرجاء تسمية هذه الصورة",137.5,13830,"شكل خماسي",1045,139.568,4,"ما مدى تطابق هذا الاسم مع هذه الصورة؟",7,"VCS_220.png",1,"trial_lists/trial_list_1"
"8LGit",".الرجاء تسمية هذه الصورة",144.646,5035,"مثلث",1349,147.015,4,"ما مدى تطابق هذا الاسم مع هذه الصورة؟",8,"triangle.png",1,"trial_lists/trial_list_1"
"8LGit",".الرجاء تسمية هذه الصورة",153.181,6125,"نجمه بحر",1357,155.562,4,"ما مدى تطابق هذا الاسم مع هذه الصورة؟",9,"VCS_10.png",1,"trial_lists/trial_list_1"
"8LGit",".الرجاء تسمية هذه الصورة",165.151,9560,"منحني",1451,167.628,3,"ما مدى تطابق هذا الاسم مع هذه الصورة؟",10,"VCS_160.png",1,"trial_lists/trial_list_1"
"8LGit",".الرجاء تسمية هذه الصورة",180.633,12961,"بكتيريا",1099,182.758,3,"ما مدى تطابق هذا الاسم مع هذه الصورة؟",11,"VCS_70.png",1,"trial_lists/trial_list_1"
"8LGit",".الرجاء تسمية هذه الصورة",214.454,31651,"شكل عشاري",1654,217.133,3,"ما مدى تطابق هذا الاسم مع هذه الصورة؟",12,"VCS_340.png",1,"trial_lists/trial_list_1"
"8LGit",".الرجاء تسمية هذه الصورة",228.411,11232,"متوازي منحني",1381,230.816,3,"ما مدى تطابق هذا الاسم مع هذه الصورة؟",13,"VCS_190.png",1,"trial_lists/trial_list_1"
"8LGit",".الرجاء تسمية هذه الصورة",246.561,15699,"نجمه مربعه",1414,248.998,3,"ما مدى تطابق هذا الاسم مع هذه الصورة؟",14,"VCS_280.png",1,"trial_lists/trial_list_1"
"8LGit",".الرجاء تسمية هذه الصورة",268.152,19118,"نجمه متوازيه",2137,271.313,4,"ما مدى تطابق هذا الاسم مع هذه الصورة؟",15,"VCS_310.png",1,"trial_lists/trial_list_1"
"8lPDm",".الرجاء تسمية هذه الصورة",32.055,9530,"مثلث",12514,45.584,4,"ما مدى تطابق هذا الاسم مع هذه الصورة؟",1,"triangle.png",2,"trial_lists/trial_list_2"
"8lPDm",".الرجاء تسمية هذه الصورة",56.545,10931,"سن مقلوبة",7685,65.236,4,"ما مدى تطابق هذا الاسم مع هذه الصورة؟",2,"VCS_80.png",2,"trial_lists/trial_list_2"
"8lPDm",".الرجاء تسمية هذه الصورة",76.547,11278,"جرثومة",9178,86.733,2,"ما مدى تطابق هذا الاسم مع هذه الصورة؟",3,"VCS_50.png",2,"trial_lists/trial_list_2"
"8lPDm",".الرجاء تسمية هذه الصورة",99.807,13042,"نجم",4454,105.269,4,"ما مدى تطابق هذا الاسم مع هذه الصورة؟",4,"VCS_350.png",2,"trial_lists/trial_list_2"
"8lPDm",".الرجاء تسمية هذه الصورة",161.626,56328,"وجه",4145,166.777,1,"ما مدى تطابق هذا الاسم مع هذه الصورة؟",5,"VCS_200.png",2,"trial_lists/trial_list_2"
"8lPDm",".الرجاء تسمية هذه الصورة",174.673,7864,"مربع",2051,177.728,4,"ما مدى تطابق هذا الاسم مع هذه الصورة؟",6,"square.png",2,"trial_lists/trial_list_2"
"8lPDm",".الرجاء تسمية هذه الصورة",201.155,23414,"نجم",1855,204.016,1,"ما مدى تطابق هذا الاسم مع هذه الصورة؟",7,"VCS_320.png",2,"trial_lists/trial_list_2"
"8lPDm",".الرجاء تسمية هذه الصورة",299.433,95404,"وجه",1441,301.879,1,"ما مدى تطابق هذا الاسم مع هذه الصورة؟",8,"VCS_230.png",2,"trial_lists/trial_list_2"
"8lPDm",".الرجاء تسمية هذه الصورة",400.149,98254,"سبنر",1379,402.535,1,"ما مدى تطابق هذا الاسم مع هذه الصورة؟",9,"VCS_20.png",2,"trial_lists/trial_list_2"
"8lPDm",".الرجاء تسمية هذه الصورة",414.432,11867,"فازة",1282,416.719,1,"ما مدى تطابق هذا الاسم مع هذه الصورة؟",10,"VCS_170.png",2,"trial_lists/trial_list_2"
"8lPDm",".الرجاء تسمية هذه الصورة",437.751,21002,"قبعة شيف",7718,446.473,3,"ما مدى تطابق هذا الاسم مع هذه الصورة؟",11,"VCS_260.png",2,"trial_lists/trial_list_2"
"8lPDm",".الرجاء تسمية هذه الصورة",467.435,20931,"وجه ارنب",4317,472.758,2,"ما مدى تطابق هذا الاسم مع هذه الصورة؟",12,"VCS_110.png",2,"trial_lists/trial_list_2"
"8lPDm",".الرجاء تسمية هذه الصورة",483.637,10845,"كلب",1598,486.244,4,"ما مدى تطابق هذا الاسم مع هذه الصورة؟",13,"dog.png",2,"trial_lists/trial_list_2"
"8lPDm",".الرجاء تسمية هذه الصورة",505.125,18854,"قبعة",1898,508.028,2,"ما مدى تطابق هذا الاسم مع هذه الصورة؟",14,"VCS_290.png",2,"trial_lists/trial_list_2"
"8lPDm",".الرجاء تسمية هذه الصورة",558.839,50781,"فازة",1884,561.728,2,"ما مدى تطابق هذا الاسم مع هذه الصورة؟",15,"VCS_140.png",2,"trial_lists/trial_list_2"
"8PGpC",".الرجاء تسمية هذه الصورة",13.323,6989,"كلب",27614,41.953,3,"ما مدى تطابق هذا الاسم مع هذه الصورة؟",1,"dog.png",2,"trial_lists/trial_list_2"
"8PGpC",".الرجاء تسمية هذه الصورة",52.426,10443,"نجمه",4598,58.03,4,"ما مدى تطابق هذا الاسم مع هذه الصورة؟",2,"VCS_20.png",2,"trial_lists/trial_list_2"
"8PGpC",".الرجاء تسمية هذه الصورة",67.876,9816,"مثلث",1467,70.349,4,"ما مدى تطابق هذا الاسم مع هذه الصورة؟",3,"triangle.png",2,"trial_lists/trial_list_2"
"8PGpC",".الرجاء تسمية هذه الصورة",77.625,7244,"فازه",3898,82.529,1,"ما مدى تطابق هذا الاسم مع هذه الصورة؟",4,"VCS_170.png",2,"trial_lists/trial_list_2"
"8PGpC",".الرجاء تسمية هذه الصورة",98.961,16402,"فازه",1383,101.348,1,"ما مدى تطابق هذا الاسم مع هذه الصورة؟",5,"VCS_140.png",2,"trial_lists/trial_list_2"
"8Puch",".الرجاء تسمية هذه الصورة",50.319,26108,"كلب مستذأب",28442,79.776,1,"ما مدى تطابق هذا الاسم مع هذه الصورة؟",1,"dog.png",1,"trial_lists/trial_list_1"
"8Puch",".الرجاء تسمية هذه الصورة",105.981,26179,"ضرس",1045,108.038,1,"ما مدى تطابق هذا الاسم مع هذه الصورة؟",2,"VCS_100.png",1,"trial_lists/trial_list_1"
"8Puch",".الرجاء تسمية هذه الصورة",117.108,9031,"قبعة طباخ",2365,120.488,3,"ما مدى تطابق هذا الاسم مع هذه الصورة؟",3,"VCS_310.png",1,"trial_lists/trial_list_1"
"8QmVo",".الرجاء تسمية هذه الصورة",35.936,18609,"كلب",5506,42.464,4,"ما مدى تطابق هذا الاسم مع هذه الصورة؟",1,"dog.png",3,"trial_lists/trial_list_3"
"8QmVo",".الرجاء تسمية هذه الصورة",51.399,8911,"نجمة بحر",4462,56.878,4,"ما مدى تطابق هذا الاسم مع هذه الصورة؟",2,"VCS_360.png",3,"trial_lists/trial_list_3"
"8QmVo",".الرجاء تسمية هذه الصورة",91.903,15379,"علامة اكس",2330,95.245,1,"ما مدى تطابق هذا الاسم مع هذه الصورة؟",4,"VCS_30.png",3,"trial_lists/trial_list_3"
"8QmVo",".الرجاء تسمية هذه الصورة",101.042,5778,"مربع",1050,103.107,4,"ما مدى تطابق هذا الاسم مع هذه الصورة؟",5,"square.png",3,"trial_lists/trial_list_3"
"8qUg0",".الرجاء تسمية هذه الصورة",185.507,93005,"ذو التسعة أضلع",22918,209.442,2,"ما مدى تطابق هذا الاسم مع هذه الصورة؟",1,"VCS_240.png",3,"trial_lists/trial_list_3"
"8qUg0",".الرجاء تسمية هذه الصورة",692.355,482881,"علامة زائد مائله",4930,698.317,2,"ما مدى تطابق هذا الاسم مع هذه الصورة؟",2,"VCS_30.png",3,"trial_lists/trial_list_3"
"8qUg0",".الرجاء تسمية هذه الصورة",791.444,93069,"نجمة",1433,793.89,1,"ما مدى تطابق هذا الاسم مع هذه الصورة؟",3,"VCS_330.png",3,"trial_lists/trial_list_3"
"8qUg0",".الرجاء تسمية هذه الصورة",826.909,32973,"زير",4960,832.897,3,"ما مدى تطابق هذا الاسم مع هذه الصورة؟",4,"VCS_150.png",3,"trial_lists/trial_list_3"
"8SgFB",".الرجاء تسمية هذه الصورة",31.884,22952,"نجمة رباعية",12027,44.937,1,"ما مدى تطابق هذا الاسم مع هذه الصورة؟",1,"VCS_350.png",2,"trial_lists/trial_list_2"
"8SgFB",".الرجاء تسمية هذه الصورة",58.457,13467,"مزهرية",6861,66.337,4,"ما مدى تطابق هذا الاسم مع هذه الصورة؟",2,"VCS_170.png",2,"trial_lists/trial_list_2"
"8SgFB",".الرجاء تسمية هذه الصورة",79.421,13047,"نجمربع",1276,81.718,4,"ما مدى تطابق هذا الاسم مع هذه الصورة؟",3,"VCS_230.png",2,"trial_lists/trial_list_2"
"8SZ4U",".الرجاء تسمية هذه الصورة",69.282,28357,"0",17546,87.842,1,"ما مدى تطابق هذا الاسم مع هذه الصورة؟",1,"VCS_80.png",2,"trial_lists/trial_list_2"
"8tfLs",".الرجاء تسمية هذه الصورة",52.198,15110,"ذئب",9091,62.302,4,"ما مدى تطابق هذا الاسم مع هذه الصورة؟",1,"dog.png",2,"trial_lists/trial_list_2"
"8wiKO",".الرجاء تسمية هذه الصورة",15.77,11963,"مثلث",1561,18.359,4,"ما مدى تطابق هذا الاسم مع هذه الصورة؟",1,"triangle.png",1,"trial_lists/trial_list_1"
"8wiKO",".الرجاء تسمية هذه الصورة",26.688,8276,"فخار",1862,29.566,1,"ما مدى تطابق هذا الاسم مع هذه الصورة؟",2,"VCS_190.png",1,"trial_lists/trial_list_1"
"8wiKO",".الرجاء تسمية هذه الصورة",38.859,9256,"سلاح نينجا",1632,41.513,1,"ما مدى تطابق هذا الاسم مع هذه الصورة؟",3,"VCS_10.png",1,"trial_lists/trial_list_1"
"8wiKO",".الرجاء تسمية هذه الصورة",86.554,45004,"علبه",1273,88.847,1,"ما مدى تطابق هذا الاسم مع هذه الصورة؟",4,"VCS_340.png",1,"trial_lists/trial_list_1"
"8wiKO",".الرجاء تسمية هذه الصورة",102.105,13216,"فخار",1319,104.449,1,"ما مدى تطابق هذا الاسم مع هذه الصورة؟",5,"VCS_160.png",1,"trial_lists/trial_list_1"
"8wiKO",".الرجاء تسمية هذه الصورة",117.787,13297,"كلب",1624,120.438,4,"ما مدى تطابق هذا الاسم مع هذه الصورة؟",6,"dog.png",1,"trial_lists/trial_list_1"
"8wiKO",".الرجاء تسمية هذه الصورة",131.826,11346,"حاويه",1285,134.131,2,"ما مدى تطابق هذا الاسم مع هذه الصورة؟",7,"VCS_100.png",1,"trial_lists/trial_list_1"
"8wiKO",".الرجاء تسمية هذه الصورة",141.113,6935,"نجمه",1302,143.437,3,"ما مدى تطابق هذا الاسم مع هذه الصورة؟",8,"VCS_250.png",1,"trial_lists/trial_list_1"
"8wiKO",".الرجاء تسمية هذه الصورة",152.72,9239,"أوساخ",2476,156.215,2,"ما مدى تطابق هذا الاسم مع هذه الصورة؟",9,"VCS_70.png",1,"trial_lists/trial_list_1"
"8wiKO",".الرجاء تسمية هذه الصورة",166.948,10692,"علبه",993,168.954,1,"ما مدى تطابق هذا الاسم مع هذه الصورة؟",10,"VCS_280.png",1,"trial_lists/trial_list_1"
"8wiKO",".الرجاء تسمية هذه الصورة",178.262,9267,"اشاره ضرب",1341,180.63,3,"ما مدى تطابق هذا الاسم مع هذه الصورة؟",11,"VCS_40.png",1,"trial_lists/trial_list_1"
"8wiKO",".الرجاء تسمية هذه الصورة",188.08,7412,"نجمه",1243,190.338,2,"ما مدى تطابق هذا الاسم مع هذه الصورة؟",12,"VCS_220.png",1,"trial_lists/trial_list_1"
"8wiKO",".الرجاء تسمية هذه الصورة",198.133,7750,"مربع",1422,200.588,4,"ما مدى تطابق هذا الاسم مع هذه الصورة؟",13,"square.png",1,"trial_lists/trial_list_1"
"8wiKO",".الرجاء تسمية هذه الصورة",207.613,6973,"فخار",2144,210.776,1,"ما مدى تطابق هذا الاسم مع هذه الصورة؟",14,"VCS_130.png",1,"trial_lists/trial_list_1"
"8wiKO",".الرجاء تسمية هذه الصورة",218.645,7825,"نجمه",1721,221.389,1,"ما مدى تطابق هذا الاسم مع هذه الصورة؟",15,"VCS_310.png",1,"trial_lists/trial_list_1"
"8znQm",".الرجاء تسمية هذه الصورة",875.689,9930,"كلب",9120,885.84,4,"ما مدى تطابق هذا الاسم مع هذه الصورة؟",1,"dog.png",2,"trial_lists/trial_list_2"
"8zRhW",".الرجاء تسمية هذه الصورة",22.695,13851,"نجمة",15356,39.103,4,"ما مدى تطابق هذا الاسم مع هذه الصورة؟",1,"VCS_230.png",2,"trial_lists/trial_list_2"
"8zRhW",".الرجاء تسمية هذه الصورة",44.6,5451,"درع",1590,47.219,4,"ما مدى تطابق هذا الاسم مع هذه الصورة؟",2,"VCS_200.png",2,"trial_lists/trial_list_2"
"8zRhW",".الرجاء تسمية هذه الصورة",55.538,8297,"مزهريه",1210,57.768,4,"ما مدى تطابق هذا الاسم مع هذه الصورة؟",3,"VCS_170.png",2,"trial_lists/trial_list_2"
"8zRhW",".الرجاء تسمية هذه الصورة",85.088,27296,"قطة",3402,89.516,3,"ما مدى تطابق هذا الاسم مع هذه الصورة؟",4,"VCS_140.png",2,"trial_lists/trial_list_2"
"8zRhW",".الرجاء تسمية هذه الصورة",96.839,7293,"مثلث",1572,99.442,4,"ما مدى تطابق هذا الاسم مع هذه الصورة؟",5,"triangle.png",2,"trial_lists/trial_list_2"
"8zRhW",".الرجاء تسمية هذه الصورة",112.518,13041,"لمعة",1330,114.864,4,"ما مدى تطابق هذا الاسم مع هذه الصورة؟",6,"VCS_20.png",2,"trial_lists/trial_list_2"
"8zRhW",".الرجاء تسمية هذه الصورة",129.467,14576,"نجمة",1238,131.727,4,"ما مدى تطابق هذا الاسم مع هذه الصورة؟",7,"VCS_260.png",2,"trial_lists/trial_list_2"
"8zRhW",".الرجاء تسمية هذه الصورة",138.918,7167,"لمعة",1519,141.46,4,"ما مدى تطابق هذا الاسم مع هذه الصورة؟",8,"VCS_350.png",2,"trial_lists/trial_list_2"
"8zRhW",".الرجاء تسمية هذه الصورة",150.735,9249,"نجمة",1346,153.11,4,"ما مدى تطابق هذا الاسم مع هذه الصورة؟",9,"VCS_290.png",2,"trial_lists/trial_list_2"
"8zRhW",".الرجاء تسمية هذه الصورة",168.724,15582,"أسلحة نينجا",2222,171.97,4,"ما مدى تطابق هذا الاسم مع هذه الصورة؟",10,"VCS_320.png",2,"trial_lists/trial_list_2"
"8zRhW",".الرجاء تسمية هذه الصورة",178.517,6528,"مربع",1511,181.054,4,"ما مدى تطابق هذا الاسم مع هذه الصورة؟",11,"square.png",2,"trial_lists/trial_list_2"
"8zRhW",".الرجاء تسمية هذه الصورة",196.995,15912,"ارنب",2202,200.219,4,"ما مدى تطابق هذا الاسم مع هذه الصورة؟",12,"VCS_110.png",2,"trial_lists/trial_list_2"
"8zRhW",".الرجاء تسمية هذه الصورة",216.985,16742,"بقعة",2438,220.445,3,"ما مدى تطابق هذا الاسم مع هذه الصورة؟",13,"VCS_50.png",2,"trial_lists/trial_list_2"
"8zRhW",".الرجاء تسمية هذه الصورة",231.272,10799,"همستر",1836,234.135,3,"ما مدى تطابق هذا الاسم مع هذه الصورة؟",14,"VCS_80.png",2,"trial_lists/trial_list_2"
"8zRhW",".الرجاء تسمية هذه الصورة",241.257,7101,"ذئب",3825,246.103,3,"ما مدى تطابق هذا الاسم مع هذه الصورة؟",15,"dog.png",2,"trial_lists/trial_list_2"
"92CFn",".الرجاء تسمية هذه الصورة",14123.808,56382,"ارنب",5859,14130.69,2,"ما مدى تطابق هذا الاسم مع هذه الصورة؟",1,"VCS_120.png",3,"trial_lists/trial_list_3"
"92CFn",".الرجاء تسمية هذه الصورة",14141.417,10702,"نجمة",2162,14144.594,3,"ما مدى تطابق هذا الاسم مع هذه الصورة؟",2,"VCS_330.png",3,"trial_lists/trial_list_3"
"92CFn",".الرجاء تسمية هذه الصورة",14159.33,14708,"خماسي",1008,14161.353,3,"ما مدى تطابق هذا الاسم مع هذه الصورة؟",3,"VCS_240.png",3,"trial_lists/trial_list_3"
"92CFn",".الرجاء تسمية هذه الصورة",14221.967,60584,"فستان",1810,14224.791,3,"ما مدى تطابق هذا الاسم مع هذه الصورة؟",4,"VCS_90.png",3,"trial_lists/trial_list_3"
"92CFn",".الرجاء تسمية هذه الصورة",14243.795,18976,"بقعة",3765,14248.575,3,"ما مدى تطابق هذا الاسم مع هذه الصورة؟",5,"VCS_60.png",3,"trial_lists/trial_list_3"
"92CFn",".الرجاء تسمية هذه الصورة",14265.079,16475,"مربع",1661,14267.757,4,"ما مدى تطابق هذا الاسم مع هذه الصورة؟",6,"square.png",3,"trial_lists/trial_list_3"
"92CFn",".الرجاء تسمية هذه الصورة",14305.063,37282,"قبعة السلطان",8300,14314.38,2,"ما مدى تطابق هذا الاسم مع هذه الصورة؟",7,"VCS_210.png",3,"trial_lists/trial_list_3"
"92CFn",".الرجاء تسمية هذه الصورة",14328.517,14108,"قبعة الطباخ",1550,14331.084,3,"ما مدى تطابق هذا الاسم مع هذه الصورة؟",8,"VCS_300.png",3,"trial_lists/trial_list_3"
"92CFn",".الرجاء تسمية هذه الصورة",14348.137,17026,"ذئب",1563,14350.716,4,"ما مدى تطابق هذا الاسم مع هذه الصورة؟",9,"dog.png",3,"trial_lists/trial_list_3"
"92CFn",".الرجاء تسمية هذه الصورة",14359.989,9243,"مثلث",986,14361.991,4,"ما مدى تطابق هذا الاسم مع هذه الصورة؟",10,"triangle.png",3,"trial_lists/trial_list_3"
"92CFn",".الرجاء تسمية هذه الصورة",14374.232,12213,"وجة بووه",942,14376.189,2,"ما مدى تطابق هذا الاسم مع هذه الصورة؟",11,"VCS_150.png",3,"trial_lists/trial_list_3"
"92CFn",".الرجاء تسمية هذه الصورة",14400.996,24777,"نجم مربع",8541,14410.553,3,"ما مدى تطابق هذا الاسم مع هذه الصورة؟",12,"VCS_270.png",3,"trial_lists/trial_list_3"
"92CFn",".الرجاء تسمية هذه الصورة",14428.099,17517,"جرة",1402,14430.516,2,"ما مدى تطابق هذا الاسم مع هذه الصورة؟",13,"VCS_180.png",3,"trial_lists/trial_list_3"
"92CFn",".الرجاء تسمية هذه الصورة",14457.582,27037,"نجمة رباعية",863,14459.46,3,"ما مدى تطابق هذا الاسم مع هذه الصورة؟",14,"VCS_360.png",3,"trial_lists/trial_list_3"
"92CFn",".الرجاء تسمية هذه الصورة",14485.112,25622,"منحنيات رباعية",2807,14488.933,2,"ما مدى تطابق هذا الاسم مع هذه الصورة؟",15,"VCS_30.png",3,"trial_lists/trial_list_3"
"98ge6",".الرجاء تسمية هذه الصورة",63.39,10585,"خماسي",12623,77.024,3,"ما مدى تطابق هذا الاسم مع هذه الصورة؟",1,"VCS_220.png",1,"trial_lists/trial_list_1"
"98ge6",".الرجاء تسمية هذه الصورة",114.022,36973,"تساعي",2623,117.65,2,"ما مدى تطابق هذا الاسم مع هذه الصورة؟",2,"VCS_190.png",1,"trial_lists/trial_list_1"
"9coTt",".الرجاء تسمية هذه الصورة",13.984,8172,"مضلع",11988,27.009,1,"ما مدى تطابق هذا الاسم مع هذه الصورة؟",1,"VCS_180.png",3,"trial_lists/trial_list_3"
"9coTt",".الرجاء تسمية هذه الصورة",37.968,10882,"شبه نجمة",4446,43.44,2,"ما مدى تطابق هذا الاسم مع هذه الصورة؟",2,"VCS_300.png",3,"trial_lists/trial_list_3"
"9coTt",".الرجاء تسمية هذه الصورة",50.157,6682,"ارنب",1436,52.619,1,"ما مدى تطابق هذا الاسم مع هذه الصورة؟",3,"VCS_90.png",3,"trial_lists/trial_list_3"
"9coTt",".الرجاء تسمية هذه الصورة",63.871,11195,"ارنب",1104,66.006,1,"ما مدى تطابق هذا الاسم مع هذه الصورة؟",4,"VCS_120.png",3,"trial_lists/trial_list_3"
"9coTt",".الرجاء تسمية هذه الصورة",74.058,7997,"زهرية",2996,78.08,2,"ما مدى تطابق هذا الاسم مع هذه الصورة؟",5,"VCS_150.png",3,"trial_lists/trial_list_3"
"9coTt",".الرجاء تسمية هذه الصورة",89.499,11381,"نجمه",1710,92.243,3,"ما مدى تطابق هذا الاسم مع هذه الصورة؟",6,"VCS_270.png",3,"trial_lists/trial_list_3"
"9coTt",".الرجاء تسمية هذه الصورة",116.424,24125,"ذئب",5310,122.777,4,"ما مدى تطابق هذا الاسم مع هذه الصورة؟",7,"dog.png",3,"trial_lists/trial_list_3"
"9coTt",".الرجاء تسمية هذه الصورة",129.376,6570,"نجمة",2764,133.172,3,"ما مدى تطابق هذا الاسم مع هذه الصورة؟",8,"VCS_330.png",3,"trial_lists/trial_list_3"
"9coTt",".الرجاء تسمية هذه الصورة",144.466,11241,"مربع فارغ",1438,146.941,4,"ما مدى تطابق هذا الاسم مع هذه الصورة؟",9,"square.png",3,"trial_lists/trial_list_3"
"9coTt",".الرجاء تسمية هذه الصورة",152.828,5833,"نجمة",1689,155.547,3,"ما مدى تطابق هذا الاسم مع هذه الصورة؟",10,"VCS_360.png",3,"trial_lists/trial_list_3"
"9coTt",".الرجاء تسمية هذه الصورة",168.949,13361,"لا اعرف",2018,171.994,1,"ما مدى تطابق هذا الاسم مع هذه الصورة؟",11,"VCS_60.png",3,"trial_lists/trial_list_3"
"9coTt",".الرجاء تسمية هذه الصورة",184.872,12847,"لا اعرف",1377,187.275,1,"ما مدى تطابق هذا الاسم مع هذه الصورة؟",12,"VCS_30.png",3,"trial_lists/trial_list_3"
"9coTt",".الرجاء تسمية هذه الصورة",192.624,5289,"مضلع",1261,194.915,2,"ما مدى تطابق هذا الاسم مع هذه الصورة؟",13,"VCS_210.png",3,"trial_lists/trial_list_3"
"9coTt",".الرجاء تسمية هذه الصورة",200.358,5401,"مثلث",2590,203.984,4,"ما مدى تطابق هذا الاسم مع هذه الصورة؟",14,"triangle.png",3,"trial_lists/trial_list_3"
"9coTt",".الرجاء تسمية هذه الصورة",211.881,7861,"نجمة مضلعة",2526,215.438,2,"ما مدى تطابق هذا الاسم مع هذه الصورة؟",15,"VCS_240.png",3,"trial_lists/trial_list_3"
"9Dlh0",".الرجاء تسمية هذه الصورة",20.211,11527,"خليه",10508,31.751,2,"ما مدى تطابق هذا الاسم مع هذه الصورة؟",1,"VCS_180.png",3,"trial_lists/trial_list_3"
"9Dlh0",".الرجاء تسمية هذه الصورة",52.099,20292,"ملابس بحر",1941,55.06,2,"ما مدى تطابق هذا الاسم مع هذه الصورة؟",2,"VCS_120.png",3,"trial_lists/trial_list_3"
"9Dlh0",".الرجاء تسمية هذه الصورة",62.848,7759,"صوره",1474,65.344,3,"ما مدى تطابق هذا الاسم مع هذه الصورة؟",3,"square.png",3,"trial_lists/trial_list_3"
"9Dlh0",".الرجاء تسمية هذه الصورة",71.305,5932,"نجمه",1486,73.811,2,"ما مدى تطابق هذا الاسم مع هذه الصورة؟",4,"VCS_240.png",3,"trial_lists/trial_list_3"
"9Dlh0",".الرجاء تسمية هذه الصورة",79.994,6153,"اميبا",1288,82.3,2,"ما مدى تطابق هذا الاسم مع هذه الصورة؟",5,"VCS_30.png",3,"trial_lists/trial_list_3"
"9Dlh0",".الرجاء تسمية هذه الصورة",125.179,6601,"مثلث",1099,127.299,4,"ما مدى تطابق هذا الاسم مع هذه الصورة؟",7,"triangle.png",3,"trial_lists/trial_list_3"
"9Dlh0",".الرجاء تسمية هذه الصورة",133.012,5678,"نجمه",1327,135.36,4,"ما مدى تطابق هذا الاسم مع هذه الصورة؟",8,"VCS_270.png",3,"trial_lists/trial_list_3"
"9Dlh0",".الرجاء تسمية هذه الصورة",161.259,8413,"ذئب",1513,163.798,3,"ما مدى تطابق هذا الاسم مع هذه الصورة؟",10,"dog.png",3,"trial_lists/trial_list_3"
"9Dlh0",".الرجاء تسمية هذه الصورة",191.727,7809,"نجمه بحر",1303,194.05,2,"ما مدى تطابق هذا الاسم مع هذه الصورة؟",13,"VCS_360.png",3,"trial_lists/trial_list_3"
"9Dlh0",".الرجاء تسمية هذه الصورة",202.392,8312,"خماسي",1261,204.672,2,"ما مدى تطابق هذا الاسم مع هذه الصورة؟",14,"VCS_210.png",3,"trial_lists/trial_list_3"
"9Dlh0",".الرجاء تسمية هذه الصورة",210.068,5368,"نجمه",1354,212.441,1,"ما مدى تطابق هذا الاسم مع هذه الصورة؟",15,"VCS_300.png",3,"trial_lists/trial_list_3"
"9fvoI",".الرجاء تسمية هذه الصورة",29.849,19525,"نجمربع",6460,37.329,3,"ما مدى تطابق هذا الاسم مع هذه الصورة؟",1,"VCS_300.png",3,"trial_lists/trial_list_3"
"9H4zy",".الرجاء تسمية هذه الصورة",23.851,15297,"ارنب",37788,62.661,3,"ما مدى تطابق هذا الاسم مع هذه الصورة؟",1,"VCS_120.png",3,"trial_lists/trial_list_3"
"9H4zy",".الرجاء تسمية هذه الصورة",86.231,23529,"قطة",2373,89.614,1,"ما مدى تطابق هذا الاسم مع هذه الصورة؟",2,"VCS_150.png",3,"trial_lists/trial_list_3"
"9H4zy",".الرجاء تسمية هذه الصورة",97.14,7516,"خلية",1575,99.72,2,"ما مدى تطابق هذا الاسم مع هذه الصورة؟",3,"VCS_60.png",3,"trial_lists/trial_list_3"
"9H4zy",".الرجاء تسمية هذه الصورة",117.581,17824,"نجمة",2654,121.24,2,"ما مدى تطابق هذا الاسم مع هذه الصورة؟",4,"VCS_330.png",3,"trial_lists/trial_list_3"
"9H4zy",".الرجاء تسمية هذه الصورة",140.662,19384,"شكل هندسي",2520,144.19,2,"ما مدى تطابق هذا الاسم مع هذه الصورة؟",5,"VCS_270.png",3,"trial_lists/trial_list_3"
"9H4zy",".الرجاء تسمية هذه الصورة",151.939,7709,"حجر",1655,154.602,1,"ما مدى تطابق هذا الاسم مع هذه الصورة؟",6,"VCS_180.png",3,"trial_lists/trial_list_3"
"9H4zy",".الرجاء تسمية هذه الصورة",161.326,6683,"نجمة",1498,163.83,1,"ما مدى تطابق هذا الاسم مع هذه الصورة؟",7,"VCS_360.png",3,"trial_lists/trial_list_3"
"9H4zy",".الرجاء تسمية هذه الصورة",171.872,8004,"مربع",2611,175.49,4,"ما مدى تطابق هذا الاسم مع هذه الصورة؟",8,"square.png",3,"trial_lists/trial_list_3"
"9H4zy",".الرجاء تسمية هذه الصورة",187.024,11496,"شكل هندسي",3745,191.777,2,"ما مدى تطابق هذا الاسم مع هذه الصورة؟",9,"VCS_300.png",3,"trial_lists/trial_list_3"
"9H4zy",".الرجاء تسمية هذه الصورة",224.533,32720,"كائن بدائي",2991,228.531,1,"ما مدى تطابق هذا الاسم مع هذه الصورة؟",10,"VCS_90.png",3,"trial_lists/trial_list_3"
"9H4zy",".الرجاء تسمية هذه الصورة",239.949,11362,"خماسي",1159,242.113,2,"ما مدى تطابق هذا الاسم مع هذه الصورة؟",11,"VCS_210.png",3,"trial_lists/trial_list_3"
"9H4zy",".الرجاء تسمية هذه الصورة",257.112,14958,"شكل هندسي",1541,259.66,2,"ما مدى تطابق هذا الاسم مع هذه الصورة؟",12,"VCS_240.png",3,"trial_lists/trial_list_3"
"9H4zy",".الرجاء تسمية هذه الصورة",272.146,12441,"ثعلب",1377,274.527,2,"ما مدى تطابق هذا الاسم مع هذه الصورة؟",13,"dog.png",3,"trial_lists/trial_list_3"
"9H4zy",".الرجاء تسمية هذه الصورة",281.262,6695,"خلية",3102,285.37,1,"ما مدى تطابق هذا الاسم مع هذه الصورة؟",14,"VCS_30.png",3,"trial_lists/trial_list_3"
"9H4zy",".الرجاء تسمية هذه الصورة",292.417,7004,"مثلث",1960,295.382,4,"ما مدى تطابق هذا الاسم مع هذه الصورة؟",15,"triangle.png",3,"trial_lists/trial_list_3"
"9jUm7",".الرجاء تسمية هذه الصورة",88.706,33163,"نجم مضيئ",15526,105.258,3,"ما مدى تطابق هذا الاسم مع هذه الصورة؟",1,"VCS_350.png",2,"trial_lists/trial_list_2"
"9jUm7",".الرجاء تسمية هذه الصورة",130.407,25114,"بوابه كهف",7934,139.347,1,"ما مدى تطابق هذا الاسم مع هذه الصورة؟",2,"VCS_200.png",2,"trial_lists/trial_list_2"
"9jUm7",".الرجاء تسمية هذه الصورة",154.467,15078,"اكس",3673,159.145,2,"ما مدى تطابق هذا الاسم مع هذه الصورة؟",3,"VCS_20.png",2,"trial_lists/trial_list_2"
"9jUm7",".الرجاء تسمية هذه الصورة",171.71,12526,"صديق وفي",4633,177.348,3,"ما مدى تطابق هذا الاسم مع هذه الصورة؟",4,"dog.png",2,"trial_lists/trial_list_2"
"9jUm7",".الرجاء تسمية هذه الصورة",212.312,34920,"تعال",1576,214.893,1,"ما مدى تطابق هذا الاسم مع هذه الصورة؟",5,"VCS_320.png",2,"trial_lists/trial_list_2"
"9KdrI",".الرجاء تسمية هذه الصورة",88.241,30583,"زائد",13118,102.374,2,"ما مدى تطابق هذا الاسم مع هذه الصورة؟",1,"VCS_30.png",3,"trial_lists/trial_list_3"
"9KdrI",".الرجاء تسمية هذه الصورة",122.447,20041,"فراخ",2382,125.835,4,"ما مدى تطابق هذا الاسم مع هذه الصورة؟",2,"square.png",3,"trial_lists/trial_list_3"
"9KdrI",".الرجاء تسمية هذه الصورة",132.11,6256,"ارنب",1682,134.798,4,"ما مدى تطابق هذا الاسم مع هذه الصورة؟",3,"VCS_120.png",3,"trial_lists/trial_list_3"
"9KdrI",".الرجاء تسمية هذه الصورة",145.549,10727,"ذئب",4168,150.722,4,"ما مدى تطابق هذا الاسم مع هذه الصورة؟",4,"dog.png",3,"trial_lists/trial_list_3"
"9KdrI",".الرجاء تسمية هذه الصورة",161.122,10367,"تاج",4726,166.852,3,"ما مدى تطابق هذا الاسم مع هذه الصورة؟",5,"VCS_270.png",3,"trial_lists/trial_list_3"
"9KdrI",".الرجاء تسمية هذه الصورة",171.825,4941,"تاج",4910,177.739,3,"ما مدى تطابق هذا الاسم مع هذه الصورة؟",6,"VCS_300.png",3,"trial_lists/trial_list_3"
"9KdrI",".الرجاء تسمية هذه الصورة",205.934,28163,"خطأ",1334,208.273,4,"ما مدى تطابق هذا الاسم مع هذه الصورة؟",7,"VCS_60.png",3,"trial_lists/trial_list_3"
"9KdrI",".الرجاء تسمية هذه الصورة",213.474,5169,"نجمة",1311,215.789,3,"ما مدى تطابق هذا الاسم مع هذه الصورة؟",8,"VCS_330.png",3,"trial_lists/trial_list_3"
"9KdrI",".الرجاء تسمية هذه الصورة",222.629,6829,"نجمة",1255,224.892,4,"ما مدى تطابق هذا الاسم مع هذه الصورة؟",9,"VCS_360.png",3,"trial_lists/trial_list_3"
"9KdrI",".الرجاء تسمية هذه الصورة",241.45,16526,"كلب",4054,246.509,2,"ما مدى تطابق هذا الاسم مع هذه الصورة؟",10,"VCS_150.png",3,"trial_lists/trial_list_3"
"9KdrI",".الرجاء تسمية هذه الصورة",252.583,6043,"نجمة",1438,255.035,3,"ما مدى تطابق هذا الاسم مع هذه الصورة؟",11,"VCS_240.png",3,"trial_lists/trial_list_3"
"9KdrI",".الرجاء تسمية هذه الصورة",266.103,11040,"خماسي",1838,268.945,3,"ما مدى تطابق هذا الاسم مع هذه الصورة؟",12,"VCS_210.png",3,"trial_lists/trial_list_3"
"9KdrI",".الرجاء تسمية هذه الصورة",273.789,4812,"مثلث",1216,276.01,3,"ما مدى تطابق هذا الاسم مع هذه الصورة؟",13,"triangle.png",3,"trial_lists/trial_list_3"
"9KdrI",".الرجاء تسمية هذه الصورة",283.101,7060,"ارنب",1220,285.325,3,"ما مدى تطابق هذا الاسم مع هذه الصورة؟",14,"VCS_90.png",3,"trial_lists/trial_list_3"
"9KdrI",".الرجاء تسمية هذه الصورة",291.636,6281,"فاظة",2303,294.945,3,"ما مدى تطابق هذا الاسم مع هذه الصورة؟",15,"VCS_180.png",3,"trial_lists/trial_list_3"
"9NfBv",".الرجاء تسمية هذه الصورة",56.679,29434,"رأس ارنب",8812,66.508,2,"ما مدى تطابق هذا الاسم مع هذه الصورة؟",1,"VCS_110.png",2,"trial_lists/trial_list_2"
"9NfBv",".الرجاء تسمية هذه الصورة",78.361,11823,"نجمربع",4176,83.544,4,"ما مدى تطابق هذا الاسم مع هذه الصورة؟",2,"VCS_260.png",2,"trial_lists/trial_list_2"
"9NfBv",".الرجاء تسمية هذه الصورة",101.308,17732,"نجمستطيل",3237,105.551,3,"ما مدى تطابق هذا الاسم مع هذه الصورة؟",3,"VCS_290.png",2,"trial_lists/trial_list_2"
"9OpQ5",".الرجاء تسمية هذه الصورة",108.876,58366,"شكل هندسي",8576,118.476,1,"ما مدى تطابق هذا الاسم مع هذه الصورة؟",1,"VCS_180.png",3,"trial_lists/trial_list_3"
"9OpQ5",".الرجاء تسمية هذه الصورة",139.632,21108,"نجمة و مربع",1937,142.587,1,"ما مدى تطابق هذا الاسم مع هذه الصورة؟",2,"VCS_270.png",3,"trial_lists/trial_list_3"
"9OpQ5",".الرجاء تسمية هذه الصورة",151.782,9163,"نجمة",1249,154.042,1,"ما مدى تطابق هذا الاسم مع هذه الصورة؟",3,"VCS_330.png",3,"trial_lists/trial_list_3"
"9OpQ5",".الرجاء تسمية هذه الصورة",168.852,14779,"مربع محدب",1732,171.603,1,"ما مدى تطابق هذا الاسم مع هذه الصورة؟",4,"VCS_210.png",3,"trial_lists/trial_list_3"
"9OpQ5",".الرجاء تسمية هذه الصورة",186.627,14988,"كلب",1280,188.923,2,"ما مدى تطابق هذا الاسم مع هذه الصورة؟",5,"dog.png",3,"trial_lists/trial_list_3"
"9OpQ5",".الرجاء تسمية هذه الصورة",301.362,112408,"شكل هندسي",1375,303.752,1,"ما مدى تطابق هذا الاسم مع هذه الصورة؟",6,"VCS_60.png",3,"trial_lists/trial_list_3"
"9OpQ5",".الرجاء تسمية هذه الصورة",315.448,11661,"شكل هندسي",1175,317.636,1,"ما مدى تطابق هذا الاسم مع هذه الصورة؟",7,"VCS_240.png",3,"trial_lists/trial_list_3"
"9OpQ5",".الرجاء تسمية هذه الصورة",328.184,10516,"شكل هندسي",1086,330.283,1,"ما مدى تطابق هذا الاسم مع هذه الصورة؟",8,"VCS_30.png",3,"trial_lists/trial_list_3"
"9OpQ5",".الرجاء تسمية هذه الصورة",338.733,8416,"شكل هندسي",1196,340.941,1,"ما مدى تطابق هذا الاسم مع هذه الصورة؟",9,"VCS_90.png",3,"trial_lists/trial_list_3"
"9OpQ5",".الرجاء تسمية هذه الصورة",350.777,9799,"شكل هندسي",1155,352.953,1,"ما مدى تطابق هذا الاسم مع هذه الصورة؟",10,"VCS_120.png",3,"trial_lists/trial_list_3"
"9OpQ5",".الرجاء تسمية هذه الصورة",359.948,6967,"نجمة",2806,363.766,1,"ما مدى تطابق هذا الاسم مع هذه الصورة؟",11,"VCS_360.png",3,"trial_lists/trial_list_3"
"9OpQ5",".الرجاء تسمية هذه الصورة",372.497,8705,"شكل هندسي",1286,374.795,1,"ما مدى تطابق هذا الاسم مع هذه الصورة؟",12,"VCS_150.png",3,"trial_lists/trial_list_3"
"9OpQ5",".الرجاء تسمية هذه الصورة",383.217,8386,"شكل هندسي",1349,385.577,1,"ما مدى تطابق هذا الاسم مع هذه الصورة؟",13,"VCS_300.png",3,"trial_lists/trial_list_3"
"9OpQ5",".الرجاء تسمية هذه الصورة",395.218,9600,"مثلث",2615,398.848,3,"ما مدى تطابق هذا الاسم مع هذه الصورة؟",14,"triangle.png",3,"trial_lists/trial_list_3"
"9OpQ5",".الرجاء تسمية هذه الصورة",404.528,5654,"مربع",4273,409.826,4,"ما مدى تطابق هذا الاسم مع هذه الصورة؟",15,"square.png",3,"trial_lists/trial_list_3"
"9R5Gr",".الرجاء تسمية هذه الصورة",19.61,10960,"مثلث",7590,28.218,2,"ما مدى تطابق هذا الاسم مع هذه الصورة؟",1,"triangle.png",2,"trial_lists/trial_list_2"
"9rd0G",".الرجاء تسمية هذه الصورة",33.749,22924,"مربعجمة",5822,40.592,3,"ما مدى تطابق هذا الاسم مع هذه الصورة؟",1,"VCS_290.png",2,"trial_lists/trial_list_2"
"9rd0G",".الرجاء تسمية هذه الصورة",46.969,6347,"اكس",1465,49.439,4,"ما مدى تطابق هذا الاسم مع هذه الصورة؟",2,"VCS_20.png",2,"trial_lists/trial_list_2"
"9rd0G",".الرجاء تسمية هذه الصورة",63.864,14397,"فستان",1165,66.045,4,"ما مدى تطابق هذا الاسم مع هذه الصورة؟",3,"VCS_110.png",2,"trial_lists/trial_list_2"
"9rd0G",".الرجاء تسمية هذه الصورة",80.435,14355,"تفاحة تخينة",2647,84.09,3,"ما مدى تطابق هذا الاسم مع هذه الصورة؟",4,"VCS_170.png",2,"trial_lists/trial_list_2"
"9rd0G",".الرجاء تسمية هذه الصورة",95.486,11364,"بيسط",2551,99.042,4,"ما مدى تطابق هذا الاسم مع هذه الصورة؟",5,"VCS_320.png",2,"trial_lists/trial_list_2"
"9rd0G",".الرجاء تسمية هذه الصورة",111.106,12033,"اكس كيوت",3532,115.643,4,"ما مدى تطابق هذا الاسم مع هذه الصورة؟",6,"VCS_50.png",2,"trial_lists/trial_list_2"
"9rd0G",".الرجاء تسمية هذه الصورة",122.52,6850,"مربربة",1968,125.494,3,"ما مدى تطابق هذا الاسم مع هذه الصورة؟",7,"VCS_140.png",2,"trial_lists/trial_list_2"
"9rd0G",".الرجاء تسمية هذه الصورة",134.617,9095,"مربع فاضي",2073,137.695,4,"ما مدى تطابق هذا الاسم مع هذه الصورة؟",8,"square.png",2,"trial_lists/trial_list_2"
"9rd0G",".الرجاء تسمية هذه الصورة",151.291,13568,"شارك اكس",1667,153.963,4,"ما مدى تطابق هذا الاسم مع هذه الصورة؟",9,"VCS_350.png",2,"trial_lists/trial_list_2"
"9rd0G",".الرجاء تسمية هذه الصورة",160.707,6714,"فستان",1164,162.877,4,"ما مدى تطابق هذا الاسم مع هذه الصورة؟",10,"VCS_80.png",2,"trial_lists/trial_list_2"
"9rd0G",".الرجاء تسمية هذه الصورة",168.971,6064,"مربعجمة",1254,171.231,4,"ما مدى تطابق هذا الاسم مع هذه الصورة؟",11,"VCS_260.png",2,"trial_lists/trial_list_2"
"9rd0G",".الرجاء تسمية هذه الصورة",190.845,19584,"تُساعي اضلاع",1448,193.297,4,"ما مدى تطابق هذا الاسم مع هذه الصورة؟",12,"VCS_230.png",2,"trial_lists/trial_list_2"
"9rd0G",".الرجاء تسمية هذه الصورة",204.41,11080,"اتجاه القبلة",1278,206.693,4,"ما مدى تطابق هذا الاسم مع هذه الصورة؟",13,"VCS_200.png",2,"trial_lists/trial_list_2"
"9rd0G",".الرجاء تسمية هذه الصورة",217.913,11208,"مثلث",1363,220.282,4,"ما مدى تطابق هذا الاسم مع هذه الصورة؟",14,"triangle.png",2,"trial_lists/trial_list_2"
"9rd0G",".الرجاء تسمية هذه الصورة",235.474,15163,"كلب مستذئب",1206,237.685,4,"ما مدى تطابق هذا الاسم مع هذه الصورة؟",15,"dog.png",2,"trial_lists/trial_list_2"
"9suYp",".الرجاء تسمية هذه الصورة",48.254,26965,"بلوزة",13251,62.564,2,"ما مدى تطابق هذا الاسم مع هذه الصورة؟",1,"VCS_100.png",1,"trial_lists/trial_list_1"
"9suYp",".الرجاء تسمية هذه الصورة",68.629,6006,"مثلث",4774,74.424,4,"ما مدى تطابق هذا الاسم مع هذه الصورة؟",2,"triangle.png",1,"trial_lists/trial_list_1"
"9suYp",".الرجاء تسمية هذه الصورة",81.032,6579,"معين",6523,88.581,1,"ما مدى تطابق هذا الاسم مع هذه الصورة؟",3,"VCS_220.png",1,"trial_lists/trial_list_1"
"9suYp",".الرجاء تسمية هذه الصورة",94.013,5404,"نجمة",4208,99.242,1,"ما مدى تطابق هذا الاسم مع هذه الصورة؟",4,"VCS_250.png",1,"trial_lists/trial_list_1"
"9wMY2",".الرجاء تسمية هذه الصورة",34.617,22476,"نجمربع 😂",37567,73.197,2,"ما مدى تطابق هذا الاسم مع هذه الصورة؟",1,"VCS_270.png",3,"trial_lists/trial_list_3"
"9wMY2",".الرجاء تسمية هذه الصورة",83.986,10758,"ارنب",4733,89.725,1,"ما مدى تطابق هذا الاسم مع هذه الصورة؟",2,"VCS_120.png",3,"trial_lists/trial_list_3"
"9wMY2",".الرجاء تسمية هذه الصورة",96.868,7110,"درع",4707,102.581,1,"ما مدى تطابق هذا الاسم مع هذه الصورة؟",3,"VCS_180.png",3,"trial_lists/trial_list_3"
"9wMY2",".الرجاء تسمية هذه الصورة",113.408,10795,"بقعة",4486,118.901,1,"ما مدى تطابق هذا الاسم مع هذه الصورة؟",4,"VCS_60.png",3,"trial_lists/trial_list_3"
"9wMY2",".الرجاء تسمية هذه الصورة",125.62,6688,"مربع",3429,130.054,4,"ما مدى تطابق هذا الاسم مع هذه الصورة؟",5,"square.png",3,"trial_lists/trial_list_3"
"9wMY2",".الرجاء تسمية هذه الصورة",153.184,23101,"لا ادري",3471,157.661,1,"ما مدى تطابق هذا الاسم مع هذه الصورة؟",6,"VCS_210.png",3,"trial_lists/trial_list_3"
"9xQI3",".الرجاء تسمية هذه الصورة",12.799,8554,"مزهرية",13491,27.309,2,"ما مدى تطابق هذا الاسم مع هذه الصورة؟",1,"VCS_150.png",3,"trial_lists/trial_list_3"
"9xQI3",".الرجاء تسمية هذه الصورة",42.144,14802,"بلوزة",2809,45.957,2,"ما مدى تطابق هذا الاسم مع هذه الصورة؟",2,"VCS_120.png",3,"trial_lists/trial_list_3"
"9xQI3",".الرجاء تسمية هذه الصورة",58.286,12301,"كايت",3565,62.857,3,"ما مدى تطابق هذا الاسم مع هذه الصورة؟",3,"VCS_210.png",3,"trial_lists/trial_list_3"
"9xQI3",".الرجاء تسمية هذه الصورة",70.218,7338,"فستان",1215,72.438,3,"ما مدى تطابق هذا الاسم مع هذه الصورة؟",4,"VCS_90.png",3,"trial_lists/trial_list_3"
"9xQI3",".الرجاء تسمية هذه الصورة",78.766,6305,"شخبط",1360,81.131,3,"ما مدى تطابق هذا الاسم مع هذه الصورة؟",5,"VCS_60.png",3,"trial_lists/trial_list_3"
"9xwnp",".الرجاء تسمية هذه الصورة",21.098,8409,"نجمة",14208,36.317,2,"ما مدى تطابق هذا الاسم مع هذه الصورة؟",1,"VCS_10.png",1,"trial_lists/trial_list_1"
"9xwnp",".الرجاء تسمية هذه الصورة",42.655,6306,"مثلث",1937,45.597,4,"ما مدى تطابق هذا الاسم مع هذه الصورة؟",2,"triangle.png",1,"trial_lists/trial_list_1"
"9xwnp",".الرجاء تسمية هذه الصورة",50.53,4900,"مربع",2482,54.016,4,"ما مدى تطابق هذا الاسم مع هذه الصورة؟",3,"square.png",1,"trial_lists/trial_list_1"
"9xwnp",".الرجاء تسمية هذه الصورة",62.669,8621,"نجمة",2252,65.925,2,"ما مدى تطابق هذا الاسم مع هذه الصورة؟",4,"VCS_280.png",1,"trial_lists/trial_list_1"
"9xwnp",".الرجاء تسمية هذه الصورة",69.302,3345,"دب",1858,72.165,3,"ما مدى تطابق هذا الاسم مع هذه الصورة؟",5,"VCS_130.png",1,"trial_lists/trial_list_1"
"9xwnp",".الرجاء تسمية هذه الصورة",77.009,4812,"نجمة",2121,80.135,2,"ما مدى تطابق هذا الاسم مع هذه الصورة؟",6,"VCS_340.png",1,"trial_lists/trial_list_1"
"9xwnp",".الرجاء تسمية هذه الصورة",85.421,5252,"ارنب",2012,88.439,2,"ما مدى تطابق هذا الاسم مع هذه الصورة؟",7,"VCS_100.png",1,"trial_lists/trial_list_1"
"9xwnp",".الرجاء تسمية هذه الصورة",92.856,4384,"درع",1772,95.632,3,"ما مدى تطابق هذا الاسم مع هذه الصورة؟",8,"VCS_190.png",1,"trial_lists/trial_list_1"
"9xwnp",".الرجاء تسمية هذه الصورة",99.342,3677,"معين",1763,102.109,2,"ما مدى تطابق هذا الاسم مع هذه الصورة؟",9,"VCS_220.png",1,"trial_lists/trial_list_1"
"9xwnp",".الرجاء تسمية هذه الصورة",105.471,3329,"كلب",2775,109.25,4,"ما مدى تطابق هذا الاسم مع هذه الصورة؟",10,"dog.png",1,"trial_lists/trial_list_1"
"9xwnp",".الرجاء تسمية هذه الصورة",121.946,12664,"نجمه",2919,125.873,2,"ما مدى تطابق هذا الاسم مع هذه الصورة؟",11,"VCS_40.png",1,"trial_lists/trial_list_1"
"9xwnp",".الرجاء تسمية هذه الصورة",129.086,3177,"درع",1828,131.92,2,"ما مدى تطابق هذا الاسم مع هذه الصورة؟",12,"VCS_160.png",1,"trial_lists/trial_list_1"
"9xwnp",".الرجاء تسمية هذه الصورة",136.965,5013,"نجمه",1362,139.33,2,"ما مدى تطابق هذا الاسم مع هذه الصورة؟",13,"VCS_250.png",1,"trial_lists/trial_list_1"
"9xwnp",".الرجاء تسمية هذه الصورة",145.548,6187,"فبعة",1546,148.097,2,"ما مدى تطابق هذا الاسم مع هذه الصورة؟",14,"VCS_310.png",1,"trial_lists/trial_list_1"
"9xwnp",".الرجاء تسمية هذه الصورة",151.999,3869,"دب",7198,160.202,2,"ما مدى تطابق هذا الاسم مع هذه الصورة؟",15,"VCS_70.png",1,"trial_lists/trial_list_1"
"9Yz0V",".الرجاء تسمية هذه الصورة",57.733,12366,"نجمة",27184,85.945,4,"ما مدى تطابق هذا الاسم مع هذه الصورة؟",1,"VCS_340.png",1,"trial_lists/trial_list_1"
"9Yz0V",".الرجاء تسمية هذه الصورة",155.4,69401,"زهرية",3650,160.066,3,"ما مدى تطابق هذا الاسم مع هذه الصورة؟",2,"VCS_130.png",1,"trial_lists/trial_list_1"
"9Yz0V",".الرجاء تسمية هذه الصورة",171.41,11317,"خماسي",1119,173.543,3,"ما مدى تطابق هذا الاسم مع هذه الصورة؟",3,"VCS_220.png",1,"trial_lists/trial_list_1"
"9Yz0V",".الرجاء تسمية هذه الصورة",226.212,52643,"تاج",1545,228.774,3,"ما مدى تطابق هذا الاسم مع هذه الصورة؟",4,"VCS_280.png",1,"trial_lists/trial_list_1"
"9Yz0V",".الرجاء تسمية هذه الصورة",242.914,14110,"ذئب",1848,245.782,4,"ما مدى تطابق هذا الاسم مع هذه الصورة؟",5,"dog.png",1,"trial_lists/trial_list_1"
"9Yz0V",".الرجاء تسمية هذه الصورة",260.074,14264,"صخرة",1062,262.156,3,"ما مدى تطابق هذا الاسم مع هذه الصورة؟",6,"VCS_190.png",1,"trial_lists/trial_list_1"
"9Yz0V",".الرجاء تسمية هذه الصورة",268.237,6052,"مثلث",1512,270.77,4,"ما مدى تطابق هذا الاسم مع هذه الصورة؟",7,"triangle.png",1,"trial_lists/trial_list_1"
"9Yz0V",".الرجاء تسمية هذه الصورة",285.094,14294,"نجمة",2427,288.546,4,"ما مدى تطابق هذا الاسم مع هذه الصورة؟",8,"VCS_10.png",1,"trial_lists/trial_list_1"
"9Yz0V",".الرجاء تسمية هذه الصورة",318.721,30150,"أرنب",2197,321.931,2,"ما مدى تطابق هذا الاسم مع هذه الصورة؟",9,"VCS_100.png",1,"trial_lists/trial_list_1"
"9Yz0V",".الرجاء تسمية هذه الصورة",332.428,10473,"تاج",3494,336.944,3,"ما مدى تطابق هذا الاسم مع هذه الصورة؟",10,"VCS_250.png",1,"trial_lists/trial_list_1"
"9Yz0V",".الرجاء تسمية هذه الصورة",385.941,48975,"علامة خطأ",1175,388.137,3,"ما مدى تطابق هذا الاسم مع هذه الصورة؟",11,"VCS_40.png",1,"trial_lists/trial_list_1"
"9Yz0V",".الرجاء تسمية هذه الصورة",438.504,50336,"زهرية",11988,451.515,3,"ما مدى تطابق هذا الاسم مع هذه الصورة؟",12,"VCS_160.png",1,"trial_lists/trial_list_1"
"9Yz0V",".الرجاء تسمية هذه الصورة",466.308,14766,"أرنب",2232,469.556,2,"ما مدى تطابق هذا الاسم مع هذه الصورة؟",13,"VCS_70.png",1,"trial_lists/trial_list_1"
"9Yz0V",".الرجاء تسمية هذه الصورة",475.554,5974,"مربع",2006,478.584,4,"ما مدى تطابق هذا الاسم مع هذه الصورة؟",14,"square.png",1,"trial_lists/trial_list_1"
"9Yz0V",".الرجاء تسمية هذه الصورة",523.881,45270,"قبعة مهرج",2499,527.398,3,"ما مدى تطابق هذا الاسم مع هذه الصورة؟",15,"VCS_310.png",1,"trial_lists/trial_list_1"
"9ZET3",".الرجاء تسمية هذه الصورة",25.158,13884,"منجم",35196,61.364,1,"ما مدى تطابق هذا الاسم مع هذه الصورة؟",1,"VCS_240.png",3,"trial_lists/trial_list_3"
"9ZET3",".الرجاء تسمية هذه الصورة",76.974,15580,"وش ذا",2848,80.828,1,"ما مدى تطابق هذا الاسم مع هذه الصورة؟",2,"VCS_210.png",3,"trial_lists/trial_list_3"
"9ZET3",".الرجاء تسمية هذه الصورة",90.475,9614,"نص نجمها",1467,92.948,2,"ما مدى تطابق هذا الاسم مع هذه الصورة؟",3,"VCS_300.png",3,"trial_lists/trial_list_3"
"9ZET3",".الرجاء تسمية هذه الصورة",105.521,12543,"مناجم",1822,108.35,1,"ما مدى تطابق هذا الاسم مع هذه الصورة؟",4,"VCS_270.png",3,"trial_lists/trial_list_3"
"9ZET3",".الرجاء تسمية هذه الصورة",117.806,9425,"خليه",2370,121.182,2,"ما مدى تطابق هذا الاسم مع هذه الصورة؟",5,"VCS_30.png",3,"trial_lists/trial_list_3"
"9ZET3",".الرجاء تسمية هذه الصورة",127.578,6363,"مثلاث",1619,130.203,4,"ما مدى تطابق هذا الاسم مع هذه الصورة؟",6,"triangle.png",3,"trial_lists/trial_list_3"
"9ZsVY",".الرجاء تسمية هذه الصورة",63.196,13305,"نجمة",23938,88.143,3,"ما مدى تطابق هذا الاسم مع هذه الصورة؟",1,"VCS_360.png",3,"trial_lists/trial_list_3"
"9ZsVY",".الرجاء تسمية هذه الصورة",136.494,48336,"خُماسي الأضلاع",4359,141.86,2,"ما مدى تطابق هذا الاسم مع هذه الصورة؟",2,"VCS_210.png",3,"trial_lists/trial_list_3"
"9ZsVY",".الرجاء تسمية هذه الصورة",209.911,68039,"رسمة عشوائية",6159,217.077,2,"ما مدى تطابق هذا الاسم مع هذه الصورة؟",3,"VCS_120.png",3,"trial_lists/trial_list_3"
"9ZsVY",".الرجاء تسمية هذه الصورة",315.296,98206,"رسمة عشوائية",1094,317.398,2,"ما مدى تطابق هذا الاسم مع هذه الصورة؟",4,"VCS_60.png",3,"trial_lists/trial_list_3"
"9ZsVY",".الرجاء تسمية هذه الصورة",377.238,59827,"نجمة",3863,382.109,2,"ما مدى تطابق هذا الاسم مع هذه الصورة؟",5,"VCS_30.png",3,"trial_lists/trial_list_3"
"9ZsVY",".الرجاء تسمية هذه الصورة",387.88,5759,"كلب",2432,391.32,4,"ما مدى تطابق هذا الاسم مع هذه الصورة؟",6,"dog.png",3,"trial_lists/trial_list_3"
"9ZsVY",".الرجاء تسمية هذه الصورة",416.833,25502,"نجمة الكرسميس",1717,419.561,3,"ما مدى تطابق هذا الاسم مع هذه الصورة؟",7,"VCS_300.png",3,"trial_lists/trial_list_3"
"9ZsVY",".الرجاء تسمية هذه الصورة",493.136,73561,"نص مربع مع نص نجمة",2222,496.365,2,"ما مدى تطابق هذا الاسم مع هذه الصورة؟",8,"VCS_270.png",3,"trial_lists/trial_list_3"
"9ZsVY",".الرجاء تسمية هذه الصورة",523.176,26800,"رسمة عشوائية",1339,525.524,2,"ما مدى تطابق هذا الاسم مع هذه الصورة؟",9,"VCS_90.png",3,"trial_lists/trial_list_3"
"9ZsVY",".الرجاء تسمية هذه الصورة",570.437,44889,"نجمة مؤلفة من 10 اضلع",1558,573.005,1,"ما مدى تطابق هذا الاسم مع هذه الصورة؟",10,"VCS_330.png",3,"trial_lists/trial_list_3"
"9ZsVY",".الرجاء تسمية هذه الصورة",579.314,6263,"مثلث",872,581.194,4,"ما مدى تطابق هذا الاسم مع هذه الصورة؟",11,"triangle.png",3,"trial_lists/trial_list_3"
"9ZsVY",".الرجاء تسمية هذه الصورة",594.819,13613,"مزهرية",2148,597.973,1,"ما مدى تطابق هذا الاسم مع هذه الصورة؟",12,"VCS_150.png",3,"trial_lists/trial_list_3"
"9ZsVY",".الرجاء تسمية هذه الصورة",615.74,17753,"نص مربع مع نص نجمة",1698,618.447,1,"ما مدى تطابق هذا الاسم مع هذه الصورة؟",13,"VCS_240.png",3,"trial_lists/trial_list_3"
"9ZsVY",".الرجاء تسمية هذه الصورة",623.53,5065,"مربع",1791,626.328,4,"ما مدى تطابق هذا الاسم مع هذه الصورة؟",14,"square.png",3,"trial_lists/trial_list_3"
"9ZsVY",".الرجاء تسمية هذه الصورة",635.685,9345,"رسمة عشوائية",3186,639.878,2,"ما مدى تطابق هذا الاسم مع هذه الصورة؟",15,"VCS_180.png",3,"trial_lists/trial_list_3"
"a1jN6",".الرجاء تسمية هذه الصورة",31.193,24314,"منحنيات",11403,43.627,1,"ما مدى تطابق هذا الاسم مع هذه الصورة؟",1,"VCS_60.png",3,"trial_lists/trial_list_3"
"a1jN6",".الرجاء تسمية هذه الصورة",58.598,14889,"خماسي",7266,66.888,2,"ما مدى تطابق هذا الاسم مع هذه الصورة؟",2,"VCS_240.png",3,"trial_lists/trial_list_3"
"a1jN6",".الرجاء تسمية هذه الصورة",89.71,22746,"نص مثلث ونص مربع",2770,93.511,1,"ما مدى تطابق هذا الاسم مع هذه الصورة؟",3,"VCS_270.png",3,"trial_lists/trial_list_3"
"a1jN6",".الرجاء تسمية هذه الصورة",108.053,14478,"نجمه رابعيه",2156,111.246,2,"ما مدى تطابق هذا الاسم مع هذه الصورة؟",4,"VCS_360.png",3,"trial_lists/trial_list_3"
"a1jN6",".الرجاء تسمية هذه الصورة",135.381,24071,"منحنى",1294,137.706,1,"ما مدى تطابق هذا الاسم مع هذه الصورة؟",5,"VCS_210.png",3,"trial_lists/trial_list_3"
"a1jN6",".الرجاء تسمية هذه الصورة",168.67,30911,"منحنيات رباعيه",1474,171.162,1,"ما مدى تطابق هذا الاسم مع هذه الصورة؟",6,"VCS_30.png",3,"trial_lists/trial_list_3"
"A1LGS",".الرجاء تسمية هذه الصورة",96.756,26248,"مربع متحرك",19701,117.479,3,"ما مدى تطابق هذا الاسم مع هذه الصورة؟",1,"VCS_60.png",3,"trial_lists/trial_list_3"
"A1LGS",".الرجاء تسمية هذه الصورة",149.284,31783,"اثاث منزل",1883,152.183,1,"ما مدى تطابق هذا الاسم مع هذه الصورة؟",2,"VCS_180.png",3,"trial_lists/trial_list_3"
"A1LGS",".الرجاء تسمية هذه الصورة",179.15,26940,"فرحة فتاه",3030,183.195,4,"ما مدى تطابق هذا الاسم مع هذه الصورة؟",3,"VCS_90.png",3,"trial_lists/trial_list_3"
"A1LGS",".الرجاء تسمية هذه الصورة",193.86,10644,"نجمة البحر",1322,196.2,4,"ما مدى تطابق هذا الاسم مع هذه الصورة؟",4,"VCS_360.png",3,"trial_lists/trial_list_3"
"A2MPk",".الرجاء تسمية هذه الصورة",50.919,24404,"شكل مرسوم",25568,77.498,2,"ما مدى تطابق هذا الاسم مع هذه الصورة؟",1,"VCS_50.png",2,"trial_lists/trial_list_2"
"A2MPk",".الرجاء تسمية هذه الصورة",100.429,22897,"رسمه غير مكتمله",2391,103.824,2,"ما مدى تطابق هذا الاسم مع هذه الصورة؟",2,"VCS_110.png",2,"trial_lists/trial_list_2"
"A2MPk",".الرجاء تسمية هذه الصورة",125.531,21673,"كلب",1933,128.471,4,"ما مدى تطابق هذا الاسم مع هذه الصورة؟",3,"dog.png",2,"trial_lists/trial_list_2"
"A2MPk",".الرجاء تسمية هذه الصورة",140.353,11851,"شكل هرمي",2303,143.661,2,"ما مدى تطابق هذا الاسم مع هذه الصورة؟",4,"VCS_230.png",2,"trial_lists/trial_list_2"
"A2MPk",".الرجاء تسمية هذه الصورة",149.75,6057,"شكل",3676,154.433,2,"ما مدى تطابق هذا الاسم مع هذه الصورة؟",5,"VCS_200.png",2,"trial_lists/trial_list_2"
"A2MPk",".الرجاء تسمية هذه الصورة",158.327,3860,"شكل",1246,160.578,2,"ما مدى تطابق هذا الاسم مع هذه الصورة؟",6,"VCS_140.png",2,"trial_lists/trial_list_2"
"A2MPk",".الرجاء تسمية هذه الصورة",172.994,12384,"صوره فارغه",2642,176.64,2,"ما مدى تطابق هذا الاسم مع هذه الصورة؟",7,"square.png",2,"trial_lists/trial_list_2"
"A2MPk",".الرجاء تسمية هذه الصورة",181.208,4537,"نجمه",2799,185.012,4,"ما مدى تطابق هذا الاسم مع هذه الصورة؟",8,"VCS_350.png",2,"trial_lists/trial_list_2"
"A2MPk",".الرجاء تسمية هذه الصورة",191.919,6873,"شكل",4742,197.668,2,"ما مدى تطابق هذا الاسم مع هذه الصورة؟",9,"VCS_260.png",2,"trial_lists/trial_list_2"
"A2MPk",".الرجاء تسمية هذه الصورة",204.583,6883,"شكل",4985,210.576,2,"ما مدى تطابق هذا الاسم مع هذه الصورة؟",10,"VCS_20.png",2,"trial_lists/trial_list_2"
"A2MPk",".الرجاء تسمية هذه الصورة",276.959,66350,"شكل",1456,279.426,2,"ما مدى تطابق هذا الاسم مع هذه الصورة؟",11,"VCS_170.png",2,"trial_lists/trial_list_2"
"A3aZK",".الرجاء تسمية هذه الصورة",20.742,11239,"راس دب",11143,32.9,4,"ما مدى تطابق هذا الاسم مع هذه الصورة؟",1,"VCS_170.png",2,"trial_lists/trial_list_2"
"A3aZK",".الرجاء تسمية هذه الصورة",38.42,5500,"نجمه",7433,46.861,2,"ما مدى تطابق هذا الاسم مع هذه الصورة؟",2,"VCS_230.png",2,"trial_lists/trial_list_2"
"A3aZK",".الرجاء تسمية هذه الصورة",79.347,32464,"شكا",6462,86.819,1,"ما مدى تطابق هذا الاسم مع هذه الصورة؟",3,"VCS_20.png",2,"trial_lists/trial_list_2"
"A3aZK",".الرجاء تسمية هذه الصورة",96.87,10031,"راس ارنب",3012,100.891,4,"ما مدى تطابق هذا الاسم مع هذه الصورة؟",4,"VCS_110.png",2,"trial_lists/trial_list_2"
"A3aZK",".الرجاء تسمية هذه الصورة",110.518,9605,"نصف نجمه",2017,113.542,2,"ما مدى تطابق هذا الاسم مع هذه الصورة؟",5,"VCS_260.png",2,"trial_lists/trial_list_2"
"A3aZK",".الرجاء تسمية هذه الصورة",122.053,8490,"راس ارنب",1363,124.423,1,"ما مدى تطابق هذا الاسم مع هذه الصورة؟",6,"VCS_80.png",2,"trial_lists/trial_list_2"
"A3aZK",".الرجاء تسمية هذه الصورة",128.902,4457,"مربع",3649,133.558,4,"ما مدى تطابق هذا الاسم مع هذه الصورة؟",7,"square.png",2,"trial_lists/trial_list_2"
"A3aZK",".الرجاء تسمية هذه الصورة",139.791,6213,"مثلث",1374,142.173,4,"ما مدى تطابق هذا الاسم مع هذه الصورة؟",8,"triangle.png",2,"trial_lists/trial_list_2"
"A3aZK",".الرجاء تسمية هذه الصورة",145.836,3641,"نث",1940,148.785,1,"ما مدى تطابق هذا الاسم مع هذه الصورة؟",9,"VCS_290.png",2,"trial_lists/trial_list_2"
"A3aZK",".الرجاء تسمية هذه الصورة",193.056,44252,"راس ارنب",2349,196.413,1,"ما مدى تطابق هذا الاسم مع هذه الصورة؟",10,"VCS_140.png",2,"trial_lists/trial_list_2"
"A3aZK",".الرجاء تسمية هذه الصورة",199.803,3368,"نجمه",3302,204.112,2,"ما مدى تطابق هذا الاسم مع هذه الصورة؟",11,"VCS_350.png",2,"trial_lists/trial_list_2"
"A3aZK",".الرجاء تسمية هذه الصورة",217.3,13164,"نجمه غير مكتمله",2619,220.929,2,"ما مدى تطابق هذا الاسم مع هذه الصورة؟",12,"VCS_320.png",2,"trial_lists/trial_list_2"
"A3aZK",".الرجاء تسمية هذه الصورة",229.448,8497,"لا اعرف",2538,232.993,1,"ما مدى تطابق هذا الاسم مع هذه الصورة؟",13,"VCS_200.png",2,"trial_lists/trial_list_2"
"A3aZK",".الرجاء تسمية هذه الصورة",238.562,5549,"سبنر",1325,240.893,2,"ما مدى تطابق هذا الاسم مع هذه الصورة؟",14,"VCS_50.png",2,"trial_lists/trial_list_2"
"A3aZK",".الرجاء تسمية هذه الصورة",247.727,6814,"ذئب",1349,250.084,4,"ما مدى تطابق هذا الاسم مع هذه الصورة؟",15,"dog.png",2,"trial_lists/trial_list_2"
"a4N9Q",".الرجاء تسمية هذه الصورة",41.104,15339,"مخمس",15022,57.16,3,"ما مدى تطابق هذا الاسم مع هذه الصورة؟",1,"VCS_220.png",1,"trial_lists/trial_list_1"
"A4xsh",".الرجاء تسمية هذه الصورة",24.452,6983,"كلب",19390,44.901,4,"ما مدى تطابق هذا الاسم مع هذه الصورة؟",1,"dog.png",2,"trial_lists/trial_list_2"
"A4xsh",".الرجاء تسمية هذه الصورة",52.421,7444,"نجمه",2149,55.628,4,"ما مدى تطابق هذا الاسم مع هذه الصورة؟",2,"VCS_350.png",2,"trial_lists/trial_list_2"
"A4xsh",".الرجاء تسمية هذه الصورة",63.568,7902,"مثلث",1227,65.828,4,"ما مدى تطابق هذا الاسم مع هذه الصورة؟",3,"triangle.png",2,"trial_lists/trial_list_2"
"A4xsh",".الرجاء تسمية هذه الصورة",78.007,12137,"نصف نجمه",2504,81.539,1,"ما مدى تطابق هذا الاسم مع هذه الصورة؟",4,"VCS_320.png",2,"trial_lists/trial_list_2"
"A4xsh",".الرجاء تسمية هذه الصورة",93.831,12257,"مربع مع نجمه",2999,97.877,2,"ما مدى تطابق هذا الاسم مع هذه الصورة؟",5,"VCS_260.png",2,"trial_lists/trial_list_2"
"A4xsh",".الرجاء تسمية هذه الصورة",114.618,16690,"نجمه بدون حواف",1275,116.942,1,"ما مدى تطابق هذا الاسم مع هذه الصورة؟",6,"VCS_20.png",2,"trial_lists/trial_list_2"
"A4xsh",".الرجاء تسمية هذه الصورة",125.051,8051,"دب",1204,127.281,1,"ما مدى تطابق هذا الاسم مع هذه الصورة؟",7,"VCS_170.png",2,"trial_lists/trial_list_2"
"A4xsh",".الرجاء تسمية هذه الصورة",134.608,7273,"لا اعلم",1191,136.819,1,"ما مدى تطابق هذا الاسم مع هذه الصورة؟",8,"VCS_230.png",2,"trial_lists/trial_list_2"
"A4xsh",".الرجاء تسمية هذه الصورة",140.993,4139,"ارنب",2051,144.072,2,"ما مدى تطابق هذا الاسم مع هذه الصورة؟",9,"VCS_110.png",2,"trial_lists/trial_list_2"
"A4xsh",".الرجاء تسمية هذه الصورة",148.757,4644,"ارنب",1817,151.599,2,"ما مدى تطابق هذا الاسم مع هذه الصورة؟",10,"VCS_80.png",2,"trial_lists/trial_list_2"
"A4xsh",".الرجاء تسمية هذه الصورة",156.845,5207,"ارنب",4136,162.004,1,"ما مدى تطابق هذا الاسم مع هذه الصورة؟",11,"VCS_140.png",2,"trial_lists/trial_list_2"
"A4xsh",".الرجاء تسمية هذه الصورة",166.504,4466,"بقعه",2572,170.11,2,"ما مدى تطابق هذا الاسم مع هذه الصورة؟",12,"VCS_50.png",2,"trial_lists/trial_list_2"
"A4xsh",".الرجاء تسمية هذه الصورة",175.353,5190,"يووه",1569,177.943,1,"ما مدى تطابق هذا الاسم مع هذه الصورة؟",13,"VCS_290.png",2,"trial_lists/trial_list_2"
"A4xsh",".الرجاء تسمية هذه الصورة",187.481,9504,"مربع",2367,190.884,4,"ما مدى تطابق هذا الاسم مع هذه الصورة؟",14,"square.png",2,"trial_lists/trial_list_2"
"A4xsh",".الرجاء تسمية هذه الصورة",195.584,4666,"معرفش",1833,198.441,1,"ما مدى تطابق هذا الاسم مع هذه الصورة؟",15,"VCS_200.png",2,"trial_lists/trial_list_2"
"A5To7",".الرجاء تسمية هذه الصورة",44.989,31143,"سداسي خربان",11105,57.115,1,"ما مدى تطابق هذا الاسم مع هذه الصورة؟",1,"VCS_200.png",2,"trial_lists/trial_list_2"
"A5VeH",".الرجاء تسمية هذه الصورة",12.224,6927,"مربع",3354,16.6,4,"ما مدى تطابق هذا الاسم مع هذه الصورة؟",1,"square.png",2,"trial_lists/trial_list_2"
"A5VeH",".الرجاء تسمية هذه الصورة",67.188,50557,"مزهرية",3550,71.769,1,"ما مدى تطابق هذا الاسم مع هذه الصورة؟",2,"VCS_170.png",2,"trial_lists/trial_list_2"
"A5VeH",".الرجاء تسمية هذه الصورة",90.158,18345,"كيس بلاستيك مربوط",14650,105.819,1,"ما مدى تطابق هذا الاسم مع هذه الصورة؟",3,"VCS_110.png",2,"trial_lists/trial_list_2"
"A5VeH",".الرجاء تسمية هذه الصورة",113.379,7538,"بقعة",2179,116.568,2,"ما مدى تطابق هذا الاسم مع هذه الصورة؟",4,"VCS_50.png",2,"trial_lists/trial_list_2"
"A5VeH",".الرجاء تسمية هذه الصورة",127.619,11032,"ذئب",2207,130.835,2,"ما مدى تطابق هذا الاسم مع هذه الصورة؟",5,"dog.png",2,"trial_lists/trial_list_2"
"A5VeH",".الرجاء تسمية هذه الصورة",137.269,6411,"نجمة بحر",1892,140.169,2,"ما مدى تطابق هذا الاسم مع هذه الصورة؟",6,"VCS_20.png",2,"trial_lists/trial_list_2"
"A5VeH",".الرجاء تسمية هذه الصورة",149.176,8988,"مضلع غير منتظم",3039,153.226,3,"ما مدى تطابق هذا الاسم مع هذه الصورة؟",7,"VCS_260.png",2,"trial_lists/trial_list_2"
"A5VeH",".الرجاء تسمية هذه الصورة",165.841,12588,"مثلث متساوي الساقين",1972,168.822,4,"ما مدى تطابق هذا الاسم مع هذه الصورة؟",8,"triangle.png",2,"trial_lists/trial_list_2"
"A5VeH",".الرجاء تسمية هذه الصورة",178.592,9750,"كيس بلاستيك مربوط",3624,183.225,1,"ما مدى تطابق هذا الاسم مع هذه الصورة؟",9,"VCS_80.png",2,"trial_lists/trial_list_2"
"A5VeH",".الرجاء تسمية هذه الصورة",188.718,5469,"مزهرية",2882,192.609,2,"ما مدى تطابق هذا الاسم مع هذه الصورة؟",10,"VCS_140.png",2,"trial_lists/trial_list_2"
"A5VeH",".الرجاء تسمية هذه الصورة",198.978,6342,"نجمة بحر",1840,201.827,2,"ما مدى تطابق هذا الاسم مع هذه الصورة؟",11,"VCS_350.png",2,"trial_lists/trial_list_2"
"A5VeH",".الرجاء تسمية هذه الصورة",214.858,13004,"عشاري غير منتظم",2308,218.176,1,"ما مدى تطابق هذا الاسم مع هذه الصورة؟",12,"VCS_320.png",2,"trial_lists/trial_list_2"
"A5VeH",".الرجاء تسمية هذه الصورة",235.848,17645,"تساعي غير منتظم",2519,239.378,2,"ما مدى تطابق هذا الاسم مع هذه الصورة؟",13,"VCS_230.png",2,"trial_lists/trial_list_2"
"A5VeH",".الرجاء تسمية هذه الصورة",251.346,11938,"خماسي غير منتظم",2820,255.178,4,"ما مدى تطابق هذا الاسم مع هذه الصورة؟",14,"VCS_200.png",2,"trial_lists/trial_list_2"
"A5VeH",".الرجاء تسمية هذه الصورة",270.431,15228,"تساعي غير منتظم",2192,273.632,2,"ما مدى تطابق هذا الاسم مع هذه الصورة؟",15,"VCS_290.png",2,"trial_lists/trial_list_2"
"aBMCs",".الرجاء تسمية هذه الصورة",61.588,52794,"عُشاري الأضلاع",19925,82.537,4,"ما مدى تطابق هذا الاسم مع هذه الصورة؟",1,"VCS_330.png",3,"trial_lists/trial_list_3"
"aBMCs",".الرجاء تسمية هذه الصورة",104.166,21545,"شبه مضلع",2727,107.922,1,"ما مدى تطابق هذا الاسم مع هذه الصورة؟",2,"VCS_30.png",3,"trial_lists/trial_list_3"
"aBMCs",".الرجاء تسمية هذه الصورة",116.849,8835,"مربع",1843,119.728,4,"ما مدى تطابق هذا الاسم مع هذه الصورة؟",3,"square.png",3,"trial_lists/trial_list_3"
"aBMCs",".الرجاء تسمية هذه الصورة",136.913,17141,"شبه مضلع",1716,139.643,1,"ما مدى تطابق هذا الاسم مع هذه الصورة؟",4,"VCS_60.png",3,"trial_lists/trial_list_3"
"acnAS",".الرجاء تسمية هذه الصورة",74.149,11739,"كلب",15086,90.244,4,"ما مدى تطابق هذا الاسم مع هذه الصورة؟",1,"dog.png",2,"trial_lists/trial_list_2"
"acnAS",".الرجاء تسمية هذه الصورة",104.568,14302,"نجمة معوقة",12461,118.032,1,"ما مدى تطابق هذا الاسم مع هذه الصورة؟",2,"VCS_320.png",2,"trial_lists/trial_list_2"
"acnAS",".الرجاء تسمية هذه الصورة",147.856,29805,"مُثلَّث",3610,152.47,4,"ما مدى تطابق هذا الاسم مع هذه الصورة؟",3,"triangle.png",2,"trial_lists/trial_list_2"
"acnAS",".الرجاء تسمية هذه الصورة",232.958,80467,"شكل غريب",2493,236.459,1,"ما مدى تطابق هذا الاسم مع هذه الصورة؟",4,"VCS_260.png",2,"trial_lists/trial_list_2"
"acnAS",".الرجاء تسمية هذه الصورة",306.43,69952,"وجه",2062,309.496,1,"ما مدى تطابق هذا الاسم مع هذه الصورة؟",5,"VCS_170.png",2,"trial_lists/trial_list_2"
"acnAS",".الرجاء تسمية هذه الصورة",368.828,59310,"وجه مفعوص",2342,372.175,1,"ما مدى تطابق هذا الاسم مع هذه الصورة؟",6,"VCS_140.png",2,"trial_lists/trial_list_2"
"acnAS",".الرجاء تسمية هذه الصورة",379.207,7011,"ارنب",6279,386.49,1,"ما مدى تطابق هذا الاسم مع هذه الصورة؟",7,"VCS_110.png",2,"trial_lists/trial_list_2"
"acnAS",".الرجاء تسمية هذه الصورة",433.339,46828,"شكل غريب",4233,438.576,1,"ما مدى تطابق هذا الاسم مع هذه الصورة؟",8,"VCS_80.png",2,"trial_lists/trial_list_2"
"acnAS",".الرجاء تسمية هذه الصورة",450.889,12290,"مربع",5973,457.866,3,"ما مدى تطابق هذا الاسم مع هذه الصورة؟",9,"square.png",2,"trial_lists/trial_list_2"
"acnAS",".الرجاء تسمية هذه الصورة",498.819,40929,"مربع و ثلاث مثلثات مدموجه",9106,508.929,2,"ما مدى تطابق هذا الاسم مع هذه الصورة؟",10,"VCS_290.png",2,"trial_lists/trial_list_2"
"acnAS",".الرجاء تسمية هذه الصورة",567.938,58986,"عرف اكس",3905,572.847,1,"ما مدى تطابق هذا الاسم مع هذه الصورة؟",11,"VCS_20.png",2,"trial_lists/trial_list_2"
"acnAS",".الرجاء تسمية هذه الصورة",605.011,32142,"وجه بجوانب حادّة",1612,607.632,1,"ما مدى تطابق هذا الاسم مع هذه الصورة؟",12,"VCS_200.png",2,"trial_lists/trial_list_2"
"acnAS",".الرجاء تسمية هذه الصورة",627.636,19985,"نجمة",4893,633.534,2,"ما مدى تطابق هذا الاسم مع هذه الصورة؟",13,"VCS_350.png",2,"trial_lists/trial_list_2"
"acnAS",".الرجاء تسمية هذه الصورة",653.619,20064,"بقعة",6542,661.164,1,"ما مدى تطابق هذا الاسم مع هذه الصورة؟",14,"VCS_50.png",2,"trial_lists/trial_list_2"
"acnAS",".الرجاء تسمية هذه الصورة",690.613,29427,"شكل بستة جوانب",3351,694.969,1,"ما مدى تطابق هذا الاسم مع هذه الصورة؟",15,"VCS_230.png",2,"trial_lists/trial_list_2"
"aDI2p",".الرجاء تسمية هذه الصورة",40.589,7326,"مثلث",10392,51.993,4,"ما مدى تطابق هذا الاسم مع هذه الصورة؟",1,"triangle.png",1,"trial_lists/trial_list_1"
"aDI2p",".الرجاء تسمية هذه الصورة",65.359,13341,"كلب",1549,67.913,3,"ما مدى تطابق هذا الاسم مع هذه الصورة؟",2,"dog.png",1,"trial_lists/trial_list_1"
"aDI2p",".الرجاء تسمية هذه الصورة",81.64,13703,"لطخة",9708,92.352,2,"ما مدى تطابق هذا الاسم مع هذه الصورة؟",3,"VCS_40.png",1,"trial_lists/trial_list_1"
"aDI2p",".الرجاء تسمية هذه الصورة",97.905,5531,"مربع",5292,104.203,4,"ما مدى تطابق هذا الاسم مع هذه الصورة؟",4,"square.png",1,"trial_lists/trial_list_1"
"aDI2p",".الرجاء تسمية هذه الصورة",114.506,10281,"خماسي",2892,118.403,3,"ما مدى تطابق هذا الاسم مع هذه الصورة؟",5,"VCS_220.png",1,"trial_lists/trial_list_1"
"aDI2p",".الرجاء تسمية هذه الصورة",149.88,31456,"نجمة غير مكتملة",1781,152.667,2,"ما مدى تطابق هذا الاسم مع هذه الصورة؟",6,"VCS_250.png",1,"trial_lists/trial_list_1"
"aDI2p",".الرجاء تسمية هذه الصورة",166.791,14100,"نجمة",5045,172.841,2,"ما مدى تطابق هذا الاسم مع هذه الصورة؟",7,"VCS_340.png",1,"trial_lists/trial_list_1"
"aDI2p",".الرجاء تسمية هذه الصورة",199.707,26842,"نجمة داخل مربع",1352,202.063,1,"ما مدى تطابق هذا الاسم مع هذه الصورة؟",8,"VCS_280.png",1,"trial_lists/trial_list_1"
"aDI2p",".الرجاء تسمية هذه الصورة",212.074,9987,"شكل غير منتظم",1468,214.547,2,"ما مدى تطابق هذا الاسم مع هذه الصورة؟",9,"VCS_160.png",1,"trial_lists/trial_list_1"
"aDI2p",".الرجاء تسمية هذه الصورة",226.041,11473,"شكل غير منتظم",1700,228.745,1,"ما مدى تطابق هذا الاسم مع هذه الصورة؟",10,"VCS_130.png",1,"trial_lists/trial_list_1"
"aDI2p",".الرجاء تسمية هذه الصورة",242.023,13250,"لطخة",2773,245.802,3,"ما مدى تطابق هذا الاسم مع هذه الصورة؟",11,"VCS_70.png",1,"trial_lists/trial_list_1"
"aDI2p",".الرجاء تسمية هذه الصورة",255.988,10164,"نجمة",1617,258.61,2,"ما مدى تطابق هذا الاسم مع هذه الصورة؟",12,"VCS_10.png",1,"trial_lists/trial_list_1"
"aDI2p",".الرجاء تسمية هذه الصورة",285.336,26703,"نجمة بعشرة اضلاع",1774,288.114,2,"ما مدى تطابق هذا الاسم مع هذه الصورة؟",13,"VCS_310.png",1,"trial_lists/trial_list_1"
"aDI2p",".الرجاء تسمية هذه الصورة",295.994,7860,"لطخة",1614,298.613,1,"ما مدى تطابق هذا الاسم مع هذه الصورة؟",14,"VCS_100.png",1,"trial_lists/trial_list_1"
"aDI2p",".الرجاء تسمية هذه الصورة",307.793,9155,"شكل غير منتظم",2602,311.4,2,"ما مدى تطابق هذا الاسم مع هذه الصورة؟",15,"VCS_190.png",1,"trial_lists/trial_list_1"
"Ae5vH",".الرجاء تسمية هذه الصورة",217.82,108018,"رباعي الاضلاع",14964,233.805,2,"ما مدى تطابق هذا الاسم مع هذه الصورة؟",1,"VCS_40.png",1,"trial_lists/trial_list_1"
"Ae5vH",".الرجاء تسمية هذه الصورة",281.626,47782,"عير متناسق",5579,288.212,2,"ما مدى تطابق هذا الاسم مع هذه الصورة؟",2,"VCS_70.png",1,"trial_lists/trial_list_1"
"Ae5vH",".الرجاء تسمية هذه الصورة",359.536,71290,"رأس وقاعدة",2885,363.426,2,"ما مدى تطابق هذا الاسم مع هذه الصورة؟",3,"VCS_190.png",1,"trial_lists/trial_list_1"
"Ae5vH",".الرجاء تسمية هذه الصورة",373.407,9947,"نجمة",9051,383.464,4,"ما مدى تطابق هذا الاسم مع هذه الصورة؟",4,"VCS_340.png",1,"trial_lists/trial_list_1"
"Ae5vH",".الرجاء تسمية هذه الصورة",399.416,15919,"زهرية",4508,404.931,2,"ما مدى تطابق هذا الاسم مع هذه الصورة؟",5,"VCS_160.png",1,"trial_lists/trial_list_1"
"Ae5vH",".الرجاء تسمية هذه الصورة",421.048,16083,"كلب",4641,426.695,4,"ما مدى تطابق هذا الاسم مع هذه الصورة؟",6,"dog.png",1,"trial_lists/trial_list_1"
"Ae5vH",".الرجاء تسمية هذه الصورة",433.972,7246,"مثلث",1555,436.532,4,"ما مدى تطابق هذا الاسم مع هذه الصورة؟",7,"triangle.png",1,"trial_lists/trial_list_1"
"Ae5vH",".الرجاء تسمية هذه الصورة",456.974,20407,"نجمة",1858,459.839,3,"ما مدى تطابق هذا الاسم مع هذه الصورة؟",8,"VCS_10.png",1,"trial_lists/trial_list_1"
"Ae5vH",".الرجاء تسمية هذه الصورة",500.71,40838,"صدرية",7401,509.118,1,"ما مدى تطابق هذا الاسم مع هذه الصورة؟",9,"VCS_100.png",1,"trial_lists/trial_list_1"
"Ae5vH",".الرجاء تسمية هذه الصورة",514.541,5389,"مربع",2990,518.538,4,"ما مدى تطابق هذا الاسم مع هذه الصورة؟",10,"square.png",1,"trial_lists/trial_list_1"
"Ae5vH",".الرجاء تسمية هذه الصورة",533.147,14576,"خماسي الاضلاع",1987,536.147,3,"ما مدى تطابق هذا الاسم مع هذه الصورة؟",11,"VCS_220.png",1,"trial_lists/trial_list_1"
"Ae5vH",".الرجاء تسمية هذه الصورة",577.645,41461,"مضلع",2930,581.582,2,"ما مدى تطابق هذا الاسم مع هذه الصورة؟",12,"VCS_250.png",1,"trial_lists/trial_list_1"
"Ae5vH",".الرجاء تسمية هذه الصورة",623.73,42116,"مضلع",2016,626.751,2,"ما مدى تطابق هذا الاسم مع هذه الصورة؟",13,"VCS_310.png",1,"trial_lists/trial_list_1"
"agfpe",".الرجاء تسمية هذه الصورة",93.905,17204,"كلب",13090,108.019,3,"ما مدى تطابق هذا الاسم مع هذه الصورة؟",1,"dog.png",1,"trial_lists/trial_list_1"
"agfpe",".الرجاء تسمية هذه الصورة",115.227,7178,"نجمه",3103,119.336,2,"ما مدى تطابق هذا الاسم مع هذه الصورة؟",2,"VCS_250.png",1,"trial_lists/trial_list_1"
"agfpe",".الرجاء تسمية هذه الصورة",141.738,22382,"نجمثلث",1668,144.553,1,"ما مدى تطابق هذا الاسم مع هذه الصورة؟",3,"VCS_310.png",1,"trial_lists/trial_list_1"
"AGIX7",".الرجاء تسمية هذه الصورة",115.716,54864,"نجمربع",35662,152.393,3,"ما مدى تطابق هذا الاسم مع هذه الصورة؟",1,"VCS_280.png",1,"trial_lists/trial_list_1"
"AGIX7",".الرجاء تسمية هذه الصورة",210.873,58447,"صدفه",8409,220.289,3,"ما مدى تطابق هذا الاسم مع هذه الصورة؟",2,"VCS_190.png",1,"trial_lists/trial_list_1"
"AGIX7",".الرجاء تسمية هذه الصورة",240.374,20053,"ضفضع",4282,245.661,4,"ما مدى تطابق هذا الاسم مع هذه الصورة؟",3,"VCS_160.png",1,"trial_lists/trial_list_1"
"AGIX7",".الرجاء تسمية هذه الصورة",268.893,23196,"جوكر",3238,273.139,3,"ما مدى تطابق هذا الاسم مع هذه الصورة؟",4,"VCS_310.png",1,"trial_lists/trial_list_1"
"AGIX7",".الرجاء تسمية هذه الصورة",292.195,19021,"قطه",7856,301.057,3,"ما مدى تطابق هذا الاسم مع هذه الصورة؟",5,"VCS_130.png",1,"trial_lists/trial_list_1"
"AGIX7",".الرجاء تسمية هذه الصورة",331.169,30079,"يويو",4208,336.389,4,"ما مدى تطابق هذا الاسم مع هذه الصورة؟",6,"VCS_40.png",1,"trial_lists/trial_list_1"
"AGIX7",".الرجاء تسمية هذه الصورة",371.107,34687,"ارنب",3333,375.446,3,"ما مدى تطابق هذا الاسم مع هذه الصورة؟",7,"VCS_70.png",1,"trial_lists/trial_list_1"
"AGIX7",".الرجاء تسمية هذه الصورة",392.547,17069,"نجمي",2819,396.372,3,"ما مدى تطابق هذا الاسم مع هذه الصورة؟",8,"VCS_340.png",1,"trial_lists/trial_list_1"
"AGIX7",".الرجاء تسمية هذه الصورة",455.434,59028,"تاج",2226,458.667,3,"ما مدى تطابق هذا الاسم مع هذه الصورة؟",9,"VCS_220.png",1,"trial_lists/trial_list_1"
"AGIX7",".الرجاء تسمية هذه الصورة",483.009,24308,"فضاء",2272,486.286,4,"ما مدى تطابق هذا الاسم مع هذه الصورة؟",10,"square.png",1,"trial_lists/trial_list_1"
"AGIX7",".الرجاء تسمية هذه الصورة",502.841,16519,"نجمربع",2129,505.975,3,"ما مدى تطابق هذا الاسم مع هذه الصورة؟",11,"VCS_250.png",1,"trial_lists/trial_list_1"
"AGIX7",".الرجاء تسمية هذه الصورة",520.686,14679,"قطه",4245,525.937,3,"ما مدى تطابق هذا الاسم مع هذه الصورة؟",12,"VCS_100.png",1,"trial_lists/trial_list_1"
"AGIX7",".الرجاء تسمية هذه الصورة",538.949,12977,"ذئب",2977,542.93,4,"ما مدى تطابق هذا الاسم مع هذه الصورة؟",13,"dog.png",1,"trial_lists/trial_list_1"
"AGIX7",".الرجاء تسمية هذه الصورة",561.618,18655,"نجمه",11662,574.288,2,"ما مدى تطابق هذا الاسم مع هذه الصورة؟",14,"VCS_10.png",1,"trial_lists/trial_list_1"
"AGIX7",".الرجاء تسمية هذه الصورة",582.191,7872,"مثلث",2085,585.282,4,"ما مدى تطابق هذا الاسم مع هذه الصورة؟",15,"triangle.png",1,"trial_lists/trial_list_1"
"aHwOf",".الرجاء تسمية هذه الصورة",57.21,21487,"مثلث",7485,65.707,4,"ما مدى تطابق هذا الاسم مع هذه الصورة؟",1,"triangle.png",1,"trial_lists/trial_list_1"
"aHwOf",".الرجاء تسمية هذه الصورة",82.299,16570,"نجمة",10534,93.837,3,"ما مدى تطابق هذا الاسم مع هذه الصورة؟",2,"VCS_10.png",1,"trial_lists/trial_list_1"
"aHwOf",".الرجاء تسمية هذه الصورة",100.299,6438,"مربع",2435,103.739,4,"ما مدى تطابق هذا الاسم مع هذه الصورة؟",3,"square.png",1,"trial_lists/trial_list_1"
"aHwOf",".الرجاء تسمية هذه الصورة",128.764,25003,"درع",10037,139.805,2,"ما مدى تطابق هذا الاسم مع هذه الصورة؟",4,"VCS_190.png",1,"trial_lists/trial_list_1"
"aHwOf",".الرجاء تسمية هذه الصورة",251.104,111274,"كرسي",2283,254.391,1,"ما مدى تطابق هذا الاسم مع هذه الصورة؟",5,"VCS_130.png",1,"trial_lists/trial_list_1"
"aHwOf",".الرجاء تسمية هذه الصورة",271.806,17390,"نجمة بقاعدة",3382,276.198,3,"ما مدى تطابق هذا الاسم مع هذه الصورة؟",6,"VCS_280.png",1,"trial_lists/trial_list_1"
"aHwOf",".الرجاء تسمية هذه الصورة",316.972,40751,"مزهرية",1621,319.598,1,"ما مدى تطابق هذا الاسم مع هذه الصورة؟",7,"VCS_160.png",1,"trial_lists/trial_list_1"
"aHwOf",".الرجاء تسمية هذه الصورة",326.872,7252,"كلب",1318,329.195,4,"ما مدى تطابق هذا الاسم مع هذه الصورة؟",8,"dog.png",1,"trial_lists/trial_list_1"
"aHwOf",".الرجاء تسمية هذه الصورة",349.026,19807,"نجمة بقاعدة",2265,352.295,2,"ما مدى تطابق هذا الاسم مع هذه الصورة؟",9,"VCS_310.png",1,"trial_lists/trial_list_1"
"aHwOf",".الرجاء تسمية هذه الصورة",369.309,16990,"نجمة بقاعدة مربعة",1817,372.131,3,"ما مدى تطابق هذا الاسم مع هذه الصورة؟",10,"VCS_250.png",1,"trial_lists/trial_list_1"
"aHwOf",".الرجاء تسمية هذه الصورة",388.964,16811,"نجمة بقاعدة سيف",1961,391.93,2,"ما مدى تطابق هذا الاسم مع هذه الصورة؟",11,"VCS_340.png",1,"trial_lists/trial_list_1"
"aHwOf",".الرجاء تسمية هذه الصورة",445.643,53689,"يد بأصبعين",4601,451.248,1,"ما مدى تطابق هذا الاسم مع هذه الصورة؟",12,"VCS_100.png",1,"trial_lists/trial_list_1"
"aHwOf",".الرجاء تسمية هذه الصورة",460.947,9675,"خماسي",1764,463.716,4,"ما مدى تطابق هذا الاسم مع هذه الصورة؟",13,"VCS_220.png",1,"trial_lists/trial_list_1"
"aHwOf",".الرجاء تسمية هذه الصورة",474.427,10688,"بقعة",1367,476.799,2,"ما مدى تطابق هذا الاسم مع هذه الصورة؟",14,"VCS_40.png",1,"trial_lists/trial_list_1"
"aHwOf",".الرجاء تسمية هذه الصورة",490.295,13472,"بقعة بقاعدة",1700,493.005,2,"ما مدى تطابق هذا الاسم مع هذه الصورة؟",15,"VCS_70.png",1,"trial_lists/trial_list_1"
"aJBEI",".الرجاء تسمية هذه الصورة",77.601,19513,"مثلث متساوي الساقين",6417,85.028,3,"ما مدى تطابق هذا الاسم مع هذه الصورة؟",1,"triangle.png",1,"trial_lists/trial_list_1"
"aJBEI",".الرجاء تسمية هذه الصورة",105.213,20171,"منحني مغلق",5313,111.533,2,"ما مدى تطابق هذا الاسم مع هذه الصورة؟",2,"VCS_40.png",1,"trial_lists/trial_list_1"
"aJBEI",".الرجاء تسمية هذه الصورة",119.347,7802,"خماسي الأضلاع",5115,125.47,4,"ما مدى تطابق هذا الاسم مع هذه الصورة؟",3,"VCS_220.png",1,"trial_lists/trial_list_1"
"aJBEI",".الرجاء تسمية هذه الصورة",144.893,19406,"نجمة",1328,147.229,2,"ما مدى تطابق هذا الاسم مع هذه الصورة؟",4,"VCS_250.png",1,"trial_lists/trial_list_1"
"aJBEI",".الرجاء تسمية هذه الصورة",202.975,55714,"منحني مضلع",4697,208.68,1,"ما مدى تطابق هذا الاسم مع هذه الصورة؟",5,"VCS_130.png",1,"trial_lists/trial_list_1"
"aJBEI",".الرجاء تسمية هذه الصورة",220.941,12249,"نجمة رباعية",2008,223.956,2,"ما مدى تطابق هذا الاسم مع هذه الصورة؟",6,"VCS_340.png",1,"trial_lists/trial_list_1"
"aJBEI",".الرجاء تسمية هذه الصورة",232.697,8729,"كلب",4005,237.708,4,"ما مدى تطابق هذا الاسم مع هذه الصورة؟",7,"dog.png",1,"trial_lists/trial_list_1"
"aJBEI",".الرجاء تسمية هذه الصورة",253.399,15679,"نجمة مضلعة",1443,255.849,2,"ما مدى تطابق هذا الاسم مع هذه الصورة؟",8,"VCS_310.png",1,"trial_lists/trial_list_1"
"aJBEI",".الرجاء تسمية هذه الصورة",263.842,7963,"طفل",3268,268.115,2,"ما مدى تطابق هذا الاسم مع هذه الصورة؟",9,"VCS_70.png",1,"trial_lists/trial_list_1"
"aJBEI",".الرجاء تسمية هذه الصورة",293.556,25430,"نجمة",1445,296.007,3,"ما مدى تطابق هذا الاسم مع هذه الصورة؟",10,"VCS_280.png",1,"trial_lists/trial_list_1"
"aJBEI",".الرجاء تسمية هذه الصورة",342.015,45997,"منحني",4101,347.121,1,"ما مدى تطابق هذا الاسم مع هذه الصورة؟",11,"VCS_190.png",1,"trial_lists/trial_list_1"
"aJBEI",".الرجاء تسمية هذه الصورة",357.388,10255,"نجمة",1655,360.049,2,"ما مدى تطابق هذا الاسم مع هذه الصورة؟",12,"VCS_10.png",1,"trial_lists/trial_list_1"
"aJBEI",".الرجاء تسمية هذه الصورة",373.839,13778,"آناء ورود",2190,377.035,2,"ما مدى تطابق هذا الاسم مع هذه الصورة؟",13,"VCS_160.png",1,"trial_lists/trial_list_1"
"aJBEI",".الرجاء تسمية هذه الصورة",383.898,6852,"مربع",2756,387.66,2,"ما مدى تطابق هذا الاسم مع هذه الصورة؟",14,"square.png",1,"trial_lists/trial_list_1"
"aJBEI",".الرجاء تسمية هذه الصورة",396.497,8825,"راقصة باليه",1899,399.403,2,"ما مدى تطابق هذا الاسم مع هذه الصورة؟",15,"VCS_100.png",1,"trial_lists/trial_list_1"
"AKsXf",".الرجاء تسمية هذه الصورة",208.803,29358,"رجل دجاجة",30206,240.017,3,"ما مدى تطابق هذا الاسم مع هذه الصورة؟",1,"VCS_320.png",2,"trial_lists/trial_list_2"
"AKsXf",".الرجاء تسمية هذه الصورة",319.382,79331,"راس الشجرة",4539,324.925,1,"ما مدى تطابق هذا الاسم مع هذه الصورة؟",2,"VCS_200.png",2,"trial_lists/trial_list_2"
"AKsXf",".الرجاء تسمية هذه الصورة",342.266,17310,"مثلث",6679,349.952,4,"ما مدى تطابق هذا الاسم مع هذه الصورة؟",3,"triangle.png",2,"trial_lists/trial_list_2"
"AKsXf",".الرجاء تسمية هذه الصورة",359.189,9208,"كلب",4525,364.719,4,"ما مدى تطابق هذا الاسم مع هذه الصورة؟",4,"dog.png",2,"trial_lists/trial_list_2"
"AKsXf",".الرجاء تسمية هذه الصورة",394.099,29347,"رجل البطة",6533,401.638,2,"ما مدى تطابق هذا الاسم مع هذه الصورة؟",5,"VCS_290.png",2,"trial_lists/trial_list_2"
"AKsXf",".الرجاء تسمية هذه الصورة",425.567,23893,"اكس",9999,436.571,2,"ما مدى تطابق هذا الاسم مع هذه الصورة؟",6,"VCS_20.png",2,"trial_lists/trial_list_2"
"AKsXf",".الرجاء تسمية هذه الصورة",481.391,44787,"سباعي الاضلاع",2414,484.81,1,"ما مدى تطابق هذا الاسم مع هذه الصورة؟",7,"VCS_230.png",2,"trial_lists/trial_list_2"
"AKsXf",".الرجاء تسمية هذه الصورة",491.473,6631,"مربع",1571,494.048,4,"ما مدى تطابق هذا الاسم مع هذه الصورة؟",8,"square.png",2,"trial_lists/trial_list_2"
"AKsXf",".الرجاء تسمية هذه الصورة",521.207,27127,"مربع ذائب",4885,527.097,1,"ما مدى تطابق هذا الاسم مع هذه الصورة؟",9,"VCS_80.png",2,"trial_lists/trial_list_2"
"AKsXf",".الرجاء تسمية هذه الصورة",567.622,40489,"سلايم",1413,570.04,1,"ما مدى تطابق هذا الاسم مع هذه الصورة؟",10,"VCS_50.png",2,"trial_lists/trial_list_2"
"AKsXf",".الرجاء تسمية هذه الصورة",596.343,26284,"نجمربع",3428,600.776,3,"ما مدى تطابق هذا الاسم مع هذه الصورة؟",11,"VCS_260.png",2,"trial_lists/trial_list_2"
"AKsXf",".الرجاء تسمية هذه الصورة",608.265,7455,"نجمة",1898,611.169,4,"ما مدى تطابق هذا الاسم مع هذه الصورة؟",12,"VCS_350.png",2,"trial_lists/trial_list_2"
"AKsXf",".الرجاء تسمية هذه الصورة",625.136,13933,"راس الدب",2657,628.797,3,"ما مدى تطابق هذا الاسم مع هذه الصورة؟",13,"VCS_170.png",2,"trial_lists/trial_list_2"
"AKsXf",".الرجاء تسمية هذه الصورة",647.589,18759,"راس انثى الدب",1675,650.277,1,"ما مدى تطابق هذا الاسم مع هذه الصورة؟",14,"VCS_140.png",2,"trial_lists/trial_list_2"
"AKsXf",".الرجاء تسمية هذه الصورة",660.229,9920,"راس الارنب",4509,665.743,2,"ما مدى تطابق هذا الاسم مع هذه الصورة؟",15,"VCS_110.png",2,"trial_lists/trial_list_2"
"aLP86",".الرجاء تسمية هذه الصورة",38.142,19706,"زائد",19613,58.775,2,"ما مدى تطابق هذا الاسم مع هذه الصورة؟",1,"VCS_30.png",3,"trial_lists/trial_list_3"
"aLP86",".الرجاء تسمية هذه الصورة",85.65,26842,"نجمة بس ولدت مختلفة",11214,97.873,3,"ما مدى تطابق هذا الاسم مع هذه الصورة؟",2,"VCS_270.png",3,"trial_lists/trial_list_3"
"aLP86",".الرجاء تسمية هذه الصورة",130.997,33093,"ذئب مأكلب",3365,135.371,1,"ما مدى تطابق هذا الاسم مع هذه الصورة؟",3,"dog.png",3,"trial_lists/trial_list_3"
"aLP86",".الرجاء تسمية هذه الصورة",147.448,12047,"اللاشكل",1317,149.774,4,"ما مدى تطابق هذا الاسم مع هذه الصورة؟",4,"VCS_120.png",3,"trial_lists/trial_list_3"
"aLP86",".الرجاء تسمية هذه الصورة",162.375,12574,"شعار ريل مدريد",3177,166.56,4,"ما مدى تطابق هذا الاسم مع هذه الصورة؟",5,"VCS_180.png",3,"trial_lists/trial_list_3"
"aLP86",".الرجاء تسمية هذه الصورة",191.281,24691,"نجمة من اصحاب الهمم",4444,196.734,2,"ما مدى تطابق هذا الاسم مع هذه الصورة؟",6,"VCS_360.png",3,"trial_lists/trial_list_3"
"amAzD",".الرجاء تسمية هذه الصورة",182.549,32852,"شعار رجل خارق",139343,322.934,3,"ما مدى تطابق هذا الاسم مع هذه الصورة؟",1,"VCS_320.png",2,"trial_lists/trial_list_2"
"amAzD",".الرجاء تسمية هذه الصورة",394.013,71008,"نجمة تحقق الامنيات",6378,401.417,2,"ما مدى تطابق هذا الاسم مع هذه الصورة؟",2,"VCS_350.png",2,"trial_lists/trial_list_2"
"amkYo",".الرجاء تسمية هذه الصورة",25.622,16731,"نجمه",16951,43.607,1,"ما مدى تطابق هذا الاسم مع هذه الصورة؟",1,"VCS_20.png",2,"trial_lists/trial_list_2"
"aMNcs",".الرجاء تسمية هذه الصورة",38.607,17498,"هندري دبب شنو هذا",12103,51.722,1,"ما مدى تطابق هذا الاسم مع هذه الصورة؟",1,"VCS_160.png",1,"trial_lists/trial_list_1"
"aMNcs",".الرجاء تسمية هذه الصورة",58.19,6435,"نجمه",3502,62.699,3,"ما مدى تطابق هذا الاسم مع هذه الصورة؟",2,"VCS_310.png",1,"trial_lists/trial_list_1"
"aMNcs",".الرجاء تسمية هذه الصورة",73.474,10741,"نجمه بشكل احسن 😂",2907,77.388,2,"ما مدى تطابق هذا الاسم مع هذه الصورة؟",3,"VCS_250.png",1,"trial_lists/trial_list_1"
"aMNcs",".الرجاء تسمية هذه الصورة",92.76,15337,"نجمه مايعه 🙃",2206,95.971,3,"ما مدى تطابق هذا الاسم مع هذه الصورة؟",4,"VCS_70.png",1,"trial_lists/trial_list_1"
"aMNcs",".الرجاء تسمية هذه الصورة",108.528,12544,"شنوو مو مسااع طلعت وگلت نجمه",1484,111.017,4,"ما مدى تطابق هذا الاسم مع هذه الصورة؟",5,"VCS_280.png",1,"trial_lists/trial_list_1"
"aMNcs",".الرجاء تسمية هذه الصورة",120.157,9098,"نجمه سمينه 😔💔",2008,123.172,3,"ما مدى تطابق هذا الاسم مع هذه الصورة؟",6,"VCS_190.png",1,"trial_lists/trial_list_1"
"aMNcs",".الرجاء تسمية هذه الصورة",145.076,21894,"نجمه سمينه سوت رجيم وضعفت 🤤♥️",2748,148.832,3,"ما مدى تطابق هذا الاسم مع هذه الصورة؟",7,"VCS_10.png",1,"trial_lists/trial_list_1"
"aMNcs",".الرجاء تسمية هذه الصورة",159.01,10140,"نجمه حملت 🥲♥️",1652,161.667,3,"ما مدى تطابق هذا الاسم مع هذه الصورة؟",8,"VCS_100.png",1,"trial_lists/trial_list_1"
"aMNcs",".الرجاء تسمية هذه الصورة",170.929,9220,"وصلت شهر التاسع",1559,173.492,3,"ما مدى تطابق هذا الاسم مع هذه الصورة؟",9,"VCS_220.png",1,"trial_lists/trial_list_1"
"aMNcs",".الرجاء تسمية هذه الصورة",190.23,16730,"زوج نجمه نجوووم 🤤♥️",2446,193.679,4,"ما مدى تطابق هذا الاسم مع هذه الصورة؟",10,"VCS_40.png",1,"trial_lists/trial_list_1"
"amx59",".الرجاء تسمية هذه الصورة",37.978,7751,"وسام",7019,46.03,3,"ما مدى تطابق هذا الاسم مع هذه الصورة؟",1,"VCS_180.png",3,"trial_lists/trial_list_3"
"amx59",".الرجاء تسمية هذه الصورة",58.586,12480,"كلب ممكن مريض",2353,61.956,3,"ما مدى تطابق هذا الاسم مع هذه الصورة؟",2,"dog.png",3,"trial_lists/trial_list_3"
"amx59",".الرجاء تسمية هذه الصورة",75.308,13310,"برمودة",1145,77.466,1,"ما مدى تطابق هذا الاسم مع هذه الصورة؟",3,"triangle.png",3,"trial_lists/trial_list_3"
"amx59",".الرجاء تسمية هذه الصورة",105.508,28000,"شبه نجمة",1958,108.48,2,"ما مدى تطابق هذا الاسم مع هذه الصورة؟",4,"VCS_300.png",3,"trial_lists/trial_list_3"
"amx59",".الرجاء تسمية هذه الصورة",128.888,20370,"سلايم",1270,131.172,1,"ما مدى تطابق هذا الاسم مع هذه الصورة؟",5,"VCS_30.png",3,"trial_lists/trial_list_3"
"amx59",".الرجاء تسمية هذه الصورة",140.874,9661,"سلايم ٢",1444,143.332,1,"ما مدى تطابق هذا الاسم مع هذه الصورة؟",6,"VCS_360.png",3,"trial_lists/trial_list_3"
"amx59",".الرجاء تسمية هذه الصورة",159.156,15779,"نجبع",1473,161.642,1,"ما مدى تطابق هذا الاسم مع هذه الصورة؟",7,"VCS_270.png",3,"trial_lists/trial_list_3"
"amx59",".الرجاء تسمية هذه الصورة",167.849,6157,"سلايم ٣",1624,170.488,2,"ما مدى تطابق هذا الاسم مع هذه الصورة؟",8,"VCS_60.png",3,"trial_lists/trial_list_3"
"amx59",".الرجاء تسمية هذه الصورة",177.102,6576,"مربع",2098,180.215,4,"ما مدى تطابق هذا الاسم مع هذه الصورة؟",9,"square.png",3,"trial_lists/trial_list_3"
"amx59",".الرجاء تسمية هذه الصورة",186.872,6623,"وسام ٢",2355,190.243,1,"ما مدى تطابق هذا الاسم مع هذه الصورة؟",10,"VCS_210.png",3,"trial_lists/trial_list_3"
"amx59",".الرجاء تسمية هذه الصورة",197.039,6756,"فستان",1114,199.165,1,"ما مدى تطابق هذا الاسم مع هذه الصورة؟",11,"VCS_120.png",3,"trial_lists/trial_list_3"
"amx59",".الرجاء تسمية هذه الصورة",205.162,5963,"فستان٢",1821,207.997,1,"ما مدى تطابق هذا الاسم مع هذه الصورة؟",12,"VCS_90.png",3,"trial_lists/trial_list_3"
"amx59",".الرجاء تسمية هذه الصورة",219.16,11116,"نجوط",1363,221.534,1,"ما مدى تطابق هذا الاسم مع هذه الصورة؟",13,"VCS_240.png",3,"trial_lists/trial_list_3"
"amx59",".الرجاء تسمية هذه الصورة",226.813,5238,"فستان ٣",1169,228.996,1,"ما مدى تطابق هذا الاسم مع هذه الصورة؟",14,"VCS_150.png",3,"trial_lists/trial_list_3"
"amx59",".الرجاء تسمية هذه الصورة",248.242,19196,"طائرة ورقية",1556,250.813,2,"ما مدى تطابق هذا الاسم مع هذه الصورة؟",15,"VCS_330.png",3,"trial_lists/trial_list_3"
"AoNDY",".الرجاء تسمية هذه الصورة",56.632,18198,"مثلث",18462,76.103,4,"ما مدى تطابق هذا الاسم مع هذه الصورة؟",1,"triangle.png",1,"trial_lists/trial_list_1"
"AoNDY",".الرجاء تسمية هذه الصورة",82.472,6336,"مربع",1647,85.124,4,"ما مدى تطابق هذا الاسم مع هذه الصورة؟",2,"square.png",1,"trial_lists/trial_list_1"
"AoNDY",".الرجاء تسمية هذه الصورة",96.955,11806,"نجمه",2035,100.005,3,"ما مدى تطابق هذا الاسم مع هذه الصورة؟",3,"VCS_310.png",1,"trial_lists/trial_list_1"
"aouXR",".الرجاء تسمية هذه الصورة",68.314,5628,"مثلث",1659,71.02,4,"ما مدى تطابق هذا الاسم مع هذه الصورة؟",1,"triangle.png",2,"trial_lists/trial_list_2"
"aouXR",".الرجاء تسمية هذه الصورة",74.418,3308,"مربع",1621,77.07,4,"ما مدى تطابق هذا الاسم مع هذه الصورة؟",2,"square.png",2,"trial_lists/trial_list_2"
"aouXR",".الرجاء تسمية هذه الصورة",87.348,10236,"دب",2167,90.54,2,"ما مدى تطابق هذا الاسم مع هذه الصورة؟",3,"VCS_170.png",2,"trial_lists/trial_list_2"
"aouXR",".الرجاء تسمية هذه الصورة",94.57,3984,"أرنب",1539,97.133,2,"ما مدى تطابق هذا الاسم مع هذه الصورة؟",4,"VCS_110.png",2,"trial_lists/trial_list_2"
"aouXR",".الرجاء تسمية هذه الصورة",104.637,7460,"نجمة",1822,107.487,2,"ما مدى تطابق هذا الاسم مع هذه الصورة؟",5,"VCS_350.png",2,"trial_lists/trial_list_2"
"aouXR",".الرجاء تسمية هذه الصورة",112.471,4947,"ساحرة",1724,115.227,3,"ما مدى تطابق هذا الاسم مع هذه الصورة؟",6,"VCS_320.png",2,"trial_lists/trial_list_2"
"aouXR",".الرجاء تسمية هذه الصورة",137.402,13269,"شبه بيت",2644,141.065,1,"ما مدى تطابق هذا الاسم مع هذه الصورة؟",8,"VCS_200.png",2,"trial_lists/trial_list_2"
"ARcWa",".الرجاء تسمية هذه الصورة",32.192,20748,"فازه",7699,40.941,4,"ما مدى تطابق هذا الاسم مع هذه الصورة؟",1,"VCS_140.png",2,"trial_lists/trial_list_2"
"ARcWa",".الرجاء تسمية هذه الصورة",49.464,8488,"نجم البحر",8074,58.572,3,"ما مدى تطابق هذا الاسم مع هذه الصورة؟",2,"VCS_350.png",2,"trial_lists/trial_list_2"
"ARcWa",".الرجاء تسمية هذه الصورة",69.28,10675,"سبنر",4645,74.947,4,"ما مدى تطابق هذا الاسم مع هذه الصورة؟",3,"VCS_50.png",2,"trial_lists/trial_list_2"
"ARcWa",".الرجاء تسمية هذه الصورة",80.201,5226,"مربع",1678,82.9,4,"ما مدى تطابق هذا الاسم مع هذه الصورة؟",4,"square.png",2,"trial_lists/trial_list_2"
"ASJa3",".الرجاء تسمية هذه الصورة",15.881,8238,"مثلث",10183,27.073,4,"ما مدى تطابق هذا الاسم مع هذه الصورة؟",1,"triangle.png",1,"trial_lists/trial_list_1"
"ASJa3",".الرجاء تسمية هذه الصورة",40.847,13750,"مربع مخصر",5220,47.072,1,"ما مدى تطابق هذا الاسم مع هذه الصورة؟",2,"VCS_70.png",1,"trial_lists/trial_list_1"
"ASJa3",".الرجاء تسمية هذه الصورة",53.287,6191,"نجمه",1769,56.061,3,"ما مدى تطابق هذا الاسم مع هذه الصورة؟",3,"VCS_10.png",1,"trial_lists/trial_list_1"
"Ast5E",".الرجاء تسمية هذه الصورة",25.772,4213,"مثلث",15542,42.357,4,"ما مدى تطابق هذا الاسم مع هذه الصورة؟",1,"triangle.png",2,"trial_lists/trial_list_2"
"Ast5E",".الرجاء تسمية هذه الصورة",59.178,16772,"ورده",13313,73.514,3,"ما مدى تطابق هذا الاسم مع هذه الصورة؟",2,"VCS_50.png",2,"trial_lists/trial_list_2"
"Ast5E",".الرجاء تسمية هذه الصورة",92.202,18648,"شاره",4740,97.961,2,"ما مدى تطابق هذا الاسم مع هذه الصورة؟",3,"VCS_200.png",2,"trial_lists/trial_list_2"
"Ast5E",".الرجاء تسمية هذه الصورة",109.818,11813,"كرسي",3225,114.059,2,"ما مدى تطابق هذا الاسم مع هذه الصورة؟",4,"VCS_140.png",2,"trial_lists/trial_list_2"
"Ast5E",".الرجاء تسمية هذه الصورة",124.204,10110,"ارنب",1443,126.672,3,"ما مدى تطابق هذا الاسم مع هذه الصورة؟",5,"VCS_110.png",2,"trial_lists/trial_list_2"
"Ast5E",".الرجاء تسمية هذه الصورة",151.768,25060,"طائره",3552,156.341,2,"ما مدى تطابق هذا الاسم مع هذه الصورة؟",6,"VCS_320.png",2,"trial_lists/trial_list_2"
"Ast5E",".الرجاء تسمية هذه الصورة",181.847,25468,"صخره",1323,184.19,1,"ما مدى تطابق هذا الاسم مع هذه الصورة؟",7,"VCS_170.png",2,"trial_lists/trial_list_2"
"Ast5E",".الرجاء تسمية هذه الصورة",205.305,21077,"شبه نجمه",1340,207.666,3,"ما مدى تطابق هذا الاسم مع هذه الصورة؟",8,"VCS_290.png",2,"trial_lists/trial_list_2"
"Ast5E",".الرجاء تسمية هذه الصورة",272.009,64308,"نجمه مربعه",1178,274.223,4,"ما مدى تطابق هذا الاسم مع هذه الصورة؟",9,"VCS_260.png",2,"trial_lists/trial_list_2"
"Ast5E",".الرجاء تسمية هذه الصورة",287.653,13394,"بحيره",3865,292.548,2,"ما مدى تطابق هذا الاسم مع هذه الصورة؟",10,"VCS_80.png",2,"trial_lists/trial_list_2"
"Ast5E",".الرجاء تسمية هذه الصورة",307.985,15399,"ورده",2288,311.299,3,"ما مدى تطابق هذا الاسم مع هذه الصورة؟",11,"VCS_20.png",2,"trial_lists/trial_list_2"
"Ast5E",".الرجاء تسمية هذه الصورة",318.856,7518,"كلب",3356,323.252,4,"ما مدى تطابق هذا الاسم مع هذه الصورة؟",12,"dog.png",2,"trial_lists/trial_list_2"
"at8hF",".الرجاء تسمية هذه الصورة",92.224,8724,"نجمة",14354,107.612,3,"ما مدى تطابق هذا الاسم مع هذه الصورة؟",1,"VCS_280.png",1,"trial_lists/trial_list_1"
"at8hF",".الرجاء تسمية هذه الصورة",120.467,12773,"شعار شرطة",3626,125.12,3,"ما مدى تطابق هذا الاسم مع هذه الصورة؟",2,"VCS_190.png",1,"trial_lists/trial_list_1"
"at8hF",".الرجاء تسمية هذه الصورة",140.884,15703,"نجمة",1467,143.376,3,"ما مدى تطابق هذا الاسم مع هذه الصورة؟",3,"VCS_310.png",1,"trial_lists/trial_list_1"
"at8hF",".الرجاء تسمية هذه الصورة",149.223,5782,"مثلث",1084,151.358,4,"ما مدى تطابق هذا الاسم مع هذه الصورة؟",4,"triangle.png",1,"trial_lists/trial_list_1"
"at8hF",".الرجاء تسمية هذه الصورة",240.019,39489,"إشارة الضرب (×)",1683,242.724,3,"ما مدى تطابق هذا الاسم مع هذه الصورة؟",7,"VCS_40.png",1,"trial_lists/trial_list_1"
"at8hF",".الرجاء تسمية هذه الصورة",275.478,32709,"ڤازة",1265,277.768,2,"ما مدى تطابق هذا الاسم مع هذه الصورة؟",8,"VCS_130.png",1,"trial_lists/trial_list_1"
"at8hF",".الرجاء تسمية هذه الصورة",377.984,67874,"لا اعرف",1048,380.051,1,"ما مدى تطابق هذا الاسم مع هذه الصورة؟",11,"VCS_70.png",1,"trial_lists/trial_list_1"
"at8hF",".الرجاء تسمية هذه الصورة",384.921,4838,"مربع",1154,387.123,4,"ما مدى تطابق هذا الاسم مع هذه الصورة؟",12,"square.png",1,"trial_lists/trial_list_1"
"at8hF",".الرجاء تسمية هذه الصورة",400.472,13312,"ڤازة",2943,404.435,1,"ما مدى تطابق هذا الاسم مع هذه الصورة؟",13,"VCS_160.png",1,"trial_lists/trial_list_1"
"at8hF",".الرجاء تسمية هذه الصورة",425.291,20815,"شارة شرطة",2939,429.267,2,"ما مدى تطابق هذا الاسم مع هذه الصورة؟",14,"VCS_250.png",1,"trial_lists/trial_list_1"
"at8hF",".الرجاء تسمية هذه الصورة",440.292,10957,"خماسي",4154,445.473,2,"ما مدى تطابق هذا الاسم مع هذه الصورة؟",15,"VCS_220.png",1,"trial_lists/trial_list_1"
"atbR7",".الرجاء تسمية هذه الصورة",83.103,22507,"تاج",14731,98.843,2,"ما مدى تطابق هذا الاسم مع هذه الصورة؟",1,"VCS_270.png",3,"trial_lists/trial_list_3"
"atbR7",".الرجاء تسمية هذه الصورة",108.409,9542,"كلب",7624,117.04,4,"ما مدى تطابق هذا الاسم مع هذه الصورة؟",2,"dog.png",3,"trial_lists/trial_list_3"
"ATgHt",".الرجاء تسمية هذه الصورة",54.084,35876,"مثلث متساوي الساقين",34206,89.327,3,"ما مدى تطابق هذا الاسم مع هذه الصورة؟",1,"triangle.png",3,"trial_lists/trial_list_3"
"ATgHt",".الرجاء تسمية هذه الصورة",106.905,17522,"كلب",4564,112.503,4,"ما مدى تطابق هذا الاسم مع هذه الصورة؟",2,"dog.png",3,"trial_lists/trial_list_3"
"ATgHt",".الرجاء تسمية هذه الصورة",125.659,13101,"شكل",3205,129.885,1,"ما مدى تطابق هذا الاسم مع هذه الصورة؟",3,"VCS_120.png",3,"trial_lists/trial_list_3"
"ATgHt",".الرجاء تسمية هذه الصورة",143.537,13602,"شكل",1652,146.211,1,"ما مدى تطابق هذا الاسم مع هذه الصورة؟",4,"VCS_180.png",3,"trial_lists/trial_list_3"
"ATgHt",".الرجاء تسمية هذه الصورة",153.834,7584,"نجمه",2975,157.831,2,"ما مدى تطابق هذا الاسم مع هذه الصورة؟",5,"VCS_300.png",3,"trial_lists/trial_list_3"
"ATgHt",".الرجاء تسمية هذه الصورة",168.311,10447,"مزهريه",1443,170.782,3,"ما مدى تطابق هذا الاسم مع هذه الصورة؟",6,"VCS_150.png",3,"trial_lists/trial_list_3"
"ATgHt",".الرجاء تسمية هذه الصورة",175.554,4734,"نجمه",3074,179.661,3,"ما مدى تطابق هذا الاسم مع هذه الصورة؟",7,"VCS_240.png",3,"trial_lists/trial_list_3"
"ATgHt",".الرجاء تسمية هذه الصورة",208.02,28296,"نجمه فضيه",2205,211.261,3,"ما مدى تطابق هذا الاسم مع هذه الصورة؟",8,"VCS_360.png",3,"trial_lists/trial_list_3"
"ATgHt",".الرجاء تسمية هذه الصورة",219.679,8368,"مكعب",1922,222.639,4,"ما مدى تطابق هذا الاسم مع هذه الصورة؟",9,"square.png",3,"trial_lists/trial_list_3"
"ATgHt",".الرجاء تسمية هذه الصورة",261.246,38549,"سلايم",1222,263.498,1,"ما مدى تطابق هذا الاسم مع هذه الصورة؟",10,"VCS_90.png",3,"trial_lists/trial_list_3"
"ATgHt",".الرجاء تسمية هذه الصورة",273.315,9762,"فيروس",2149,276.504,2,"ما مدى تطابق هذا الاسم مع هذه الصورة؟",11,"VCS_60.png",3,"trial_lists/trial_list_3"
"ATgHt",".الرجاء تسمية هذه الصورة",301.322,24778,"اداه محاربه الكونج فو",1697,304.055,3,"ما مدى تطابق هذا الاسم مع هذه الصورة؟",12,"VCS_30.png",3,"trial_lists/trial_list_3"
"ATgHt",".الرجاء تسمية هذه الصورة",311.164,7067,"نجمه",1323,313.518,3,"ما مدى تطابق هذا الاسم مع هذه الصورة؟",13,"VCS_330.png",3,"trial_lists/trial_list_3"
"ATgHt",".الرجاء تسمية هذه الصورة",320.666,7100,"لا أعرف",1288,322.979,2,"ما مدى تطابق هذا الاسم مع هذه الصورة؟",14,"VCS_210.png",3,"trial_lists/trial_list_3"
"ATgHt",".الرجاء تسمية هذه الصورة",333.6,10591,"نجمه مربعه",1341,335.97,2,"ما مدى تطابق هذا الاسم مع هذه الصورة؟",15,"VCS_270.png",3,"trial_lists/trial_list_3"
"AVXop",".الرجاء تسمية هذه الصورة",54.569,38940,"المنحني الضيق",10180,65.773,1,"ما مدى تطابق هذا الاسم مع هذه الصورة؟",1,"VCS_120.png",3,"trial_lists/trial_list_3"
"AVXop",".الرجاء تسمية هذه الصورة",125.322,30462,"الفاس",2071,128.416,1,"ما مدى تطابق هذا الاسم مع هذه الصورة؟",3,"VCS_30.png",3,"trial_lists/trial_list_3"
"AVXop",".الرجاء تسمية هذه الصورة",147.441,18967,"الشهاب المدبب",14702,163.184,2,"ما مدى تطابق هذا الاسم مع هذه الصورة؟",4,"VCS_360.png",3,"trial_lists/trial_list_3"
"AVXop",".الرجاء تسمية هذه الصورة",187.502,24270,"اللاشي",2975,191.5,1,"ما مدى تطابق هذا الاسم مع هذه الصورة؟",5,"square.png",3,"trial_lists/trial_list_3"
"AVXop",".الرجاء تسمية هذه الصورة",218.325,26790,"الخماسي الماءل للمربع",1383,220.736,2,"ما مدى تطابق هذا الاسم مع هذه الصورة؟",6,"VCS_210.png",3,"trial_lists/trial_list_3"
"AVXop",".الرجاء تسمية هذه الصورة",241.221,20456,"نجمه مربعه",1901,244.138,1,"ما مدى تطابق هذا الاسم مع هذه الصورة؟",7,"VCS_240.png",3,"trial_lists/trial_list_3"
"AVXop",".الرجاء تسمية هذه الصورة",384.851,14932,"ثعلب بري",1576,387.447,4,"ما مدى تطابق هذا الاسم مع هذه الصورة؟",13,"dog.png",3,"trial_lists/trial_list_3"
"AX7Th",".الرجاء تسمية هذه الصورة",79.273,30005,"شكل من خطوط منحنية",32603,112.887,3,"ما مدى تطابق هذا الاسم مع هذه الصورة؟",1,"VCS_20.png",2,"trial_lists/trial_list_2"
